thisRow.t,key_resp_2.keys,key_resp_2.corr,letter.routineEndVal,type.routineEndVal,key_resp_2.rt,participant,session,date
2.1758909999916796,None,1.0,Y,1.0,,104,brown,2023-11-07_13h23.30.456
4.259628416999476,['space'],1.0,Y,1.0,[0.5674374169902876],104,brown,2023-11-07_13h23.30.456
6.344430457989802,None,1.0,O,1.0,,104,brown,2023-11-07_13h23.30.456
8.432706166990101,None,1.0,Q,1.0,,104,brown,2023-11-07_13h23.30.456
10.52623516699532,['space'],1.0,Q,1.0,[0.4988597920018947],104,brown,2023-11-07_13h23.30.456
12.60951075000048,['space'],1.0,Q,1.0,[0.48138229199685156],104,brown,2023-11-07_13h23.30.456
14.699145832986687,None,1.0,V,1.0,,104,brown,2023-11-07_13h23.30.456
16.79215770799783,None,1.0,N,1.0,,104,brown,2023-11-07_13h23.30.456
18.88451237499248,['space'],1.0,N,1.0,[0.4177790410030866],104,brown,2023-11-07_13h23.30.456
20.9674215829873,None,1.0,Q,1.0,,104,brown,2023-11-07_13h23.30.456
23.05460524999944,['space'],1.0,Q,1.0,[0.37291749998985324],104,brown,2023-11-07_13h23.30.456
25.168056874987087,None,1.0,F,1.0,,104,brown,2023-11-07_13h23.30.456
29.74358999999822,None,1.0,X,2.0,,104,brown,2023-11-07_13h23.30.456
31.8345402499981,None,1.0,X,2.0,,104,brown,2023-11-07_13h23.30.456
33.912178749989835,None,1.0,W,2.0,,104,brown,2023-11-07_13h23.30.456
36.009475791986915,None,1.0,I,2.0,,104,brown,2023-11-07_13h23.30.456
38.1098698329879,None,1.0,C,2.0,,104,brown,2023-11-07_13h23.30.456
40.178187457990134,None,1.0,D,2.0,,104,brown,2023-11-07_13h23.30.456
42.261692666987074,None,1.0,P,2.0,,104,brown,2023-11-07_13h23.30.456
44.35132608299318,None,1.0,Q,2.0,,104,brown,2023-11-07_13h23.30.456
46.43195729199215,None,1.0,E,2.0,,104,brown,2023-11-07_13h23.30.456
48.516655749990605,None,1.0,Y,2.0,,104,brown,2023-11-07_13h23.30.456
50.60961595799017,None,1.0,Y,2.0,,104,brown,2023-11-07_13h23.30.456
52.700058041999,None,1.0,C,2.0,,104,brown,2023-11-07_13h23.30.456
55.93615354198846,None,1.0,V,2.0,,104,brown,2023-11-07_13h23.30.456
58.01866808299383,None,1.0,P,2.0,,104,brown,2023-11-07_13h23.30.456
60.10902916699706,None,1.0,U,2.0,,104,brown,2023-11-07_13h23.30.456
62.19907983299345,None,1.0,H,2.0,,104,brown,2023-11-07_13h23.30.456
64.2847395419958,None,1.0,B,2.0,,104,brown,2023-11-07_13h23.30.456
66.36678391699388,None,1.0,E,2.0,,104,brown,2023-11-07_13h23.30.456
68.4543837079982,None,1.0,R,2.0,,104,brown,2023-11-07_13h23.30.456
70.55041074998735,None,1.0,Q,2.0,,104,brown,2023-11-07_13h23.30.456
72.64308866699866,None,1.0,L,2.0,,104,brown,2023-11-07_13h23.30.456
74.72812062498997,None,1.0,A,2.0,,104,brown,2023-11-07_13h23.30.456
76.81818229198689,None,1.0,Z,2.0,,104,brown,2023-11-07_13h23.30.456
78.90418162499554,None,1.0,Y,2.0,,104,brown,2023-11-07_13h23.30.456
81.70784679199278,None,1.0,H,1.0,,104,brown,2023-11-07_13h23.30.456
83.79617712499748,None,1.0,V,1.0,,104,brown,2023-11-07_13h23.30.456
85.9056239999918,None,1.0,S,1.0,,104,brown,2023-11-07_13h23.30.456
87.97930312500102,None,1.0,I,1.0,,104,brown,2023-11-07_13h23.30.456
90.0806177919876,None,1.0,J,1.0,,104,brown,2023-11-07_13h23.30.456
92.1556799999962,None,1.0,C,1.0,,104,brown,2023-11-07_13h23.30.456
94.23751016698952,None,1.0,J,1.0,,104,brown,2023-11-07_13h23.30.456
96.32167974999174,None,1.0,O,1.0,,104,brown,2023-11-07_13h23.30.456
98.43484558298952,None,1.0,T,1.0,,104,brown,2023-11-07_13h23.30.456
100.51401537499623,None,1.0,H,1.0,,104,brown,2023-11-07_13h23.30.456
102.59547212498728,None,1.0,D,1.0,,104,brown,2023-11-07_13h23.30.456
104.6784958329954,None,1.0,X,1.0,,104,brown,2023-11-07_13h23.30.456
107.40370554199036,None,1.0,P,1.0,,104,brown,2023-11-07_13h23.30.456
109.48383645799186,None,1.0,U,1.0,,104,brown,2023-11-07_13h23.30.456
111.57619870798952,None,1.0,J,1.0,,104,brown,2023-11-07_13h23.30.456
113.66851016700092,None,1.0,S,1.0,,104,brown,2023-11-07_13h23.30.456
115.75563083299494,None,1.0,T,1.0,,104,brown,2023-11-07_13h23.30.456
117.83899337500044,['space'],1.0,T,1.0,[0.8763146249984857],104,brown,2023-11-07_13h23.30.456
119.91770870798791,None,1.0,Q,1.0,,104,brown,2023-11-07_13h23.30.456
122.008654958001,None,1.0,V,1.0,,104,brown,2023-11-07_13h23.30.456
124.10058008298802,None,1.0,O,1.0,,104,brown,2023-11-07_13h23.30.456
126.19389870799203,None,1.0,K,1.0,,104,brown,2023-11-07_13h23.30.456
128.27518633299042,None,1.0,W,1.0,,104,brown,2023-11-07_13h23.30.456
130.35902687499765,None,1.0,S,1.0,,104,brown,2023-11-07_13h23.30.456
134.82006187499792,None,1.0,L,2.0,,104,brown,2023-11-07_13h23.30.456
136.90037099999608,None,1.0,V,2.0,,104,brown,2023-11-07_13h23.30.456
139.01000587499584,None,1.0,G,2.0,,104,brown,2023-11-07_13h23.30.456
141.07738637499278,None,1.0,M,2.0,,104,brown,2023-11-07_13h23.30.456
143.1587933749979,None,1.0,H,2.0,,104,brown,2023-11-07_13h23.30.456
145.24234720799723,None,1.0,I,2.0,,104,brown,2023-11-07_13h23.30.456
147.3265339579957,None,1.0,I,2.0,,104,brown,2023-11-07_13h23.30.456
149.40658766699198,['space'],1.0,I,2.0,[0.4034959160053404],104,brown,2023-11-07_13h23.30.456
151.49235399998724,None,1.0,F,2.0,,104,brown,2023-11-07_13h23.30.456
153.5835692499968,None,1.0,T,2.0,,104,brown,2023-11-07_13h23.30.456
155.67663383299077,None,1.0,D,2.0,,104,brown,2023-11-07_13h23.30.456
157.75856558298983,None,1.0,E,2.0,,104,brown,2023-11-07_13h23.30.456
161.1280321249942,None,1.0,A,1.0,,104,brown,2023-11-07_13h23.30.456
163.21170920800068,None,1.0,M,1.0,,104,brown,2023-11-07_13h23.30.456
165.30043204200047,None,1.0,R,1.0,,104,brown,2023-11-07_13h23.30.456
167.38374812499387,None,1.0,K,1.0,,104,brown,2023-11-07_13h23.30.456
169.47674754199397,None,1.0,O,1.0,,104,brown,2023-11-07_13h23.30.456
171.5678079169884,None,1.0,J,1.0,,104,brown,2023-11-07_13h23.30.456
173.65992166700016,None,1.0,U,1.0,,104,brown,2023-11-07_13h23.30.456
175.7422208749922,None,1.0,F,1.0,,104,brown,2023-11-07_13h23.30.456
177.82525966699177,None,1.0,E,1.0,,104,brown,2023-11-07_13h23.30.456
179.9183882919897,None,1.0,N,1.0,,104,brown,2023-11-07_13h23.30.456
181.99669387500035,None,1.0,W,1.0,,104,brown,2023-11-07_13h23.30.456
184.0794484999933,None,1.0,I,1.0,,104,brown,2023-11-07_13h23.30.456
190.67119545799503,None,1.0,E,2.0,,104,brown,2023-11-07_13h23.30.456
192.75891091699305,None,1.0,R,2.0,,104,brown,2023-11-07_13h23.30.456
194.85035249999785,None,1.0,H,2.0,,104,brown,2023-11-07_13h23.30.456
196.9347602499911,['space'],1.0,R,2.0,[0.44553479200112633],104,brown,2023-11-07_13h23.30.456
199.0172899999889,None,1.0,K,2.0,,104,brown,2023-11-07_13h23.30.456
201.1085518329928,None,1.0,X,2.0,,104,brown,2023-11-07_13h23.30.456
203.20027462499272,None,1.0,W,2.0,,104,brown,2023-11-07_13h23.30.456
205.28399412499857,None,1.0,M,2.0,,104,brown,2023-11-07_13h23.30.456
207.3768737079954,None,1.0,P,2.0,,104,brown,2023-11-07_13h23.30.456
209.45559970798783,['space'],0.0,W,2.0,[0.6714722089964198],104,brown,2023-11-07_13h23.30.456
211.5424286669877,None,1.0,Y,2.0,,104,brown,2023-11-07_13h23.30.456
213.63392270798795,None,1.0,J,2.0,,104,brown,2023-11-07_13h23.30.456
11.661303375003628,None,1.0,T,2.0,,105,brown,2023-11-07_13h47.45.536
13.75236029100779,None,1.0,M,2.0,,105,brown,2023-11-07_13h47.45.536
15.836697582999475,['space'],1.0,T,2.0,[0.7306324999954086],105,brown,2023-11-07_13h47.45.536
17.92391579100513,None,1.0,S,2.0,,105,brown,2023-11-07_13h47.45.536
20.034056375006912,None,1.0,C,2.0,,105,brown,2023-11-07_13h47.45.536
22.117353541005286,None,1.0,I,2.0,,105,brown,2023-11-07_13h47.45.536
24.186240499999258,None,1.0,R,2.0,,105,brown,2023-11-07_13h47.45.536
26.270033916007375,['space'],1.0,I,2.0,[0.5311123749997932],105,brown,2023-11-07_13h47.45.536
28.358273999998342,['space'],1.0,R,2.0,[0.5392678329953924],105,brown,2023-11-07_13h47.45.536
30.452259666009923,None,1.0,Q,2.0,,105,brown,2023-11-07_13h47.45.536
32.54119258299761,['space'],1.0,R,2.0,[0.45523483300348744],105,brown,2023-11-07_13h47.45.536
34.62756362500659,None,1.0,G,2.0,,105,brown,2023-11-07_13h47.45.536
38.32290358300088,None,1.0,R,1.0,,105,brown,2023-11-07_13h47.45.536
40.41915433300892,None,1.0,X,1.0,,105,brown,2023-11-07_13h47.45.536
42.49947075000091,None,1.0,T,1.0,,105,brown,2023-11-07_13h47.45.536
44.58499562500219,None,1.0,B,1.0,,105,brown,2023-11-07_13h47.45.536
46.66649725000025,None,1.0,I,1.0,,105,brown,2023-11-07_13h47.45.536
48.75225879100617,None,1.0,N,1.0,,105,brown,2023-11-07_13h47.45.536
50.838909666010295,['space'],1.0,N,1.0,[0.8884184999915306],105,brown,2023-11-07_13h47.45.536
52.927201750004315,None,1.0,G,1.0,,105,brown,2023-11-07_13h47.45.536
55.01614595799765,None,1.0,X,1.0,,105,brown,2023-11-07_13h47.45.536
57.103093208002974,None,1.0,Z,1.0,,105,brown,2023-11-07_13h47.45.536
59.19227108301129,None,1.0,B,1.0,,105,brown,2023-11-07_13h47.45.536
61.27419224999903,None,1.0,C,1.0,,105,brown,2023-11-07_13h47.45.536
65.12624545799918,None,1.0,U,1.0,,105,brown,2023-11-07_13h47.45.536
67.20780341600766,None,1.0,G,1.0,,105,brown,2023-11-07_13h47.45.536
69.29275920800865,None,1.0,O,1.0,,105,brown,2023-11-07_13h47.45.536
71.37420175000443,None,1.0,N,1.0,,105,brown,2023-11-07_13h47.45.536
73.46938258300361,None,1.0,L,1.0,,105,brown,2023-11-07_13h47.45.536
75.54963383299764,None,1.0,S,1.0,,105,brown,2023-11-07_13h47.45.536
77.64224887501041,None,1.0,M,1.0,,105,brown,2023-11-07_13h47.45.536
79.7245868750033,None,1.0,U,1.0,,105,brown,2023-11-07_13h47.45.536
81.81379645800916,None,1.0,K,1.0,,105,brown,2023-11-07_13h47.45.536
83.89798275000066,None,1.0,M,1.0,,105,brown,2023-11-07_13h47.45.536
85.98667325000861,None,1.0,Z,1.0,,105,brown,2023-11-07_13h47.45.536
88.06934258301044,['space'],1.0,Z,1.0,[0.700165541988099],105,brown,2023-11-07_13h47.45.536
93.77780087500288,None,1.0,N,2.0,,105,brown,2023-11-07_13h47.45.536
95.87581270800727,None,1.0,J,2.0,,105,brown,2023-11-07_13h47.45.536
97.95909520800342,None,1.0,A,2.0,,105,brown,2023-11-07_13h47.45.536
100.0264287910104,None,1.0,Y,2.0,,105,brown,2023-11-07_13h47.45.536
102.11110058300255,None,1.0,D,2.0,,105,brown,2023-11-07_13h47.45.536
104.19729587499752,None,1.0,K,2.0,,105,brown,2023-11-07_13h47.45.536
106.2923565000092,None,1.0,O,2.0,,105,brown,2023-11-07_13h47.45.536
108.369988749997,None,1.0,W,2.0,,105,brown,2023-11-07_13h47.45.536
110.45936637499835,None,1.0,V,2.0,,105,brown,2023-11-07_13h47.45.536
112.55677495800774,None,1.0,E,2.0,,105,brown,2023-11-07_13h47.45.536
114.64652999999817,['space'],0.0,W,2.0,[0.7622285420075059],105,brown,2023-11-07_13h47.45.536
116.72978237499774,None,1.0,P,2.0,,105,brown,2023-11-07_13h47.45.536
120.65866904100405,None,1.0,P,2.0,,105,brown,2023-11-07_13h47.45.536
122.77163033300894,None,1.0,F,2.0,,105,brown,2023-11-07_13h47.45.536
124.83975687500788,None,1.0,J,2.0,,105,brown,2023-11-07_13h47.45.536
126.92893541599916,None,1.0,U,2.0,,105,brown,2023-11-07_13h47.45.536
129.0122593749984,None,1.0,I,2.0,,105,brown,2023-11-07_13h47.45.536
131.09552724999958,None,1.0,J,2.0,,105,brown,2023-11-07_13h47.45.536
133.18572070800292,None,1.0,X,2.0,,105,brown,2023-11-07_13h47.45.536
135.2789416660089,None,1.0,V,2.0,,105,brown,2023-11-07_13h47.45.536
137.3618953749974,None,1.0,Y,2.0,,105,brown,2023-11-07_13h47.45.536
139.4430908330105,None,1.0,Y,2.0,,105,brown,2023-11-07_13h47.45.536
141.53824408299988,None,1.0,F,2.0,,105,brown,2023-11-07_13h47.45.536
143.61923720799678,None,1.0,H,2.0,,105,brown,2023-11-07_13h47.45.536
147.47090283301077,None,1.0,H,2.0,,105,brown,2023-11-07_13h47.45.536
149.55411916600133,None,1.0,G,2.0,,105,brown,2023-11-07_13h47.45.536
151.64652054100588,None,1.0,U,2.0,,105,brown,2023-11-07_13h47.45.536
153.73005041600845,None,1.0,U,2.0,,105,brown,2023-11-07_13h47.45.536
155.82034375000512,None,1.0,T,2.0,,105,brown,2023-11-07_13h47.45.536
157.90354937499797,None,1.0,B,2.0,,105,brown,2023-11-07_13h47.45.536
159.98632483300753,None,1.0,F,2.0,,105,brown,2023-11-07_13h47.45.536
162.0703385000088,None,1.0,A,2.0,,105,brown,2023-11-07_13h47.45.536
164.15358970800298,None,1.0,W,2.0,,105,brown,2023-11-07_13h47.45.536
166.23689316600212,None,1.0,G,2.0,,105,brown,2023-11-07_13h47.45.536
168.31961220799712,None,1.0,E,2.0,,105,brown,2023-11-07_13h47.45.536
170.41320787499717,None,1.0,D,2.0,,105,brown,2023-11-07_13h47.45.536
173.79785395800718,None,1.0,Z,1.0,,105,brown,2023-11-07_13h47.45.536
175.8925345000025,None,1.0,N,1.0,,105,brown,2023-11-07_13h47.45.536
177.97821791601018,None,1.0,E,1.0,,105,brown,2023-11-07_13h47.45.536
180.07021716600866,None,1.0,F,1.0,,105,brown,2023-11-07_13h47.45.536
182.1564688750077,None,1.0,P,1.0,,105,brown,2023-11-07_13h47.45.536
184.2413727079984,None,1.0,Z,1.0,,105,brown,2023-11-07_13h47.45.536
186.32664062500407,['space'],1.0,Z,1.0,[0.6251406669907738],105,brown,2023-11-07_13h47.45.536
188.42061833300977,None,1.0,M,1.0,,105,brown,2023-11-07_13h47.45.536
190.51339566599927,None,1.0,N,1.0,,105,brown,2023-11-07_13h47.45.536
192.5953837910056,None,1.0,O,1.0,,105,brown,2023-11-07_13h47.45.536
194.68840566600556,None,1.0,Y,1.0,,105,brown,2023-11-07_13h47.45.536
196.77173804100312,['space'],1.0,Y,1.0,[0.5508564579940867],105,brown,2023-11-07_13h47.45.536
200.53318329100148,None,1.0,C,1.0,,105,brown,2023-11-07_13h47.45.536
202.6146703330014,None,1.0,P,1.0,,105,brown,2023-11-07_13h47.45.536
204.70496408300824,None,1.0,F,1.0,,105,brown,2023-11-07_13h47.45.536
206.78707112499976,None,1.0,D,1.0,,105,brown,2023-11-07_13h47.45.536
208.8800883750082,None,1.0,Z,1.0,,105,brown,2023-11-07_13h47.45.536
210.96193616600067,None,1.0,V,1.0,,105,brown,2023-11-07_13h47.45.536
213.05510024999967,None,1.0,B,1.0,,105,brown,2023-11-07_13h47.45.536
215.13726204101113,None,1.0,C,1.0,,105,brown,2023-11-07_13h47.45.536
217.220485791011,None,1.0,A,1.0,,105,brown,2023-11-07_13h47.45.536
219.31190966600843,None,1.0,E,1.0,,105,brown,2023-11-07_13h47.45.536
221.40501875001064,None,1.0,R,1.0,,105,brown,2023-11-07_13h47.45.536
223.48355725000147,None,1.0,W,1.0,,105,brown,2023-11-07_13h47.45.536
1.1535458330035908,None,1.0,K,2.0,,103,brown,2023-11-05_20h14.27.259
3.2485037920050672,None,1.0,M,2.0,,103,brown,2023-11-05_20h14.27.259
5.31659337500605,None,1.0,N,2.0,,103,brown,2023-11-05_20h14.27.259
7.400009208002302,None,1.0,F,2.0,,103,brown,2023-11-05_20h14.27.259
9.489905417001864,['space'],1.0,N,2.0,[1.1708545000001322],103,brown,2023-11-05_20h14.27.259
11.573199750004278,['space'],1.0,F,2.0,[0.8039997090018005],103,brown,2023-11-05_20h14.27.259
13.658398083003704,None,1.0,I,2.0,,103,brown,2023-11-05_20h14.27.259
15.742883375001838,['space'],1.0,F,2.0,[1.2108257090003463],103,brown,2023-11-05_20h14.27.259
17.828216042005806,None,1.0,L,2.0,,103,brown,2023-11-05_20h14.27.259
19.936085332999937,None,1.0,Z,2.0,,103,brown,2023-11-05_20h14.27.259
22.010758667005575,None,0.0,L,2.0,,103,brown,2023-11-05_20h14.27.259
24.097049875002995,['space'],1.0,Z,2.0,[1.1250857499981066],103,brown,2023-11-05_20h14.27.259
26.867704458003573,None,1.0,L,1.0,,103,brown,2023-11-05_20h14.27.259
28.958619249999177,None,1.0,A,1.0,,103,brown,2023-11-05_20h14.27.259
31.04549741700612,None,1.0,Q,1.0,,103,brown,2023-11-05_20h14.27.259
33.128815957999905,None,1.0,O,1.0,,103,brown,2023-11-05_20h14.27.259
35.21681812500174,None,1.0,T,1.0,,103,brown,2023-11-05_20h14.27.259
37.300165083004686,None,1.0,W,1.0,,103,brown,2023-11-05_20h14.27.259
39.38360662500054,None,1.0,E,1.0,,103,brown,2023-11-05_20h14.27.259
41.47217387500132,None,1.0,M,1.0,,103,brown,2023-11-05_20h14.27.259
43.5558864170016,None,1.0,Q,1.0,,103,brown,2023-11-05_20h14.27.259
45.64021329200477,None,1.0,P,1.0,,103,brown,2023-11-05_20h14.27.259
47.734734875004506,None,1.0,M,1.0,,103,brown,2023-11-05_20h14.27.259
49.817939874999865,None,1.0,K,1.0,,103,brown,2023-11-05_20h14.27.259
52.44598670800042,None,1.0,Z,1.0,,103,brown,2023-11-05_20h14.27.259
54.5262967919989,None,1.0,A,1.0,,103,brown,2023-11-05_20h14.27.259
56.613794667006005,None,1.0,F,1.0,,103,brown,2023-11-05_20h14.27.259
58.71516891700594,None,1.0,G,1.0,,103,brown,2023-11-05_20h14.27.259
60.78047745799995,None,1.0,N,1.0,,103,brown,2023-11-05_20h14.27.259
62.863759833002405,None,1.0,I,1.0,,103,brown,2023-11-05_20h14.27.259
64.9508093330005,None,1.0,H,1.0,,103,brown,2023-11-05_20h14.27.259
67.03464333300508,None,1.0,G,1.0,,103,brown,2023-11-05_20h14.27.259
69.11843916700309,None,1.0,I,1.0,,103,brown,2023-11-05_20h14.27.259
71.20614179200493,None,1.0,V,1.0,,103,brown,2023-11-05_20h14.27.259
73.30057300000044,None,1.0,Z,1.0,,103,brown,2023-11-05_20h14.27.259
75.38570220800466,None,1.0,D,1.0,,103,brown,2023-11-05_20h14.27.259
78.05281749999995,None,1.0,F,1.0,,103,brown,2023-11-05_20h14.27.259
80.12745095800346,None,1.0,V,1.0,,103,brown,2023-11-05_20h14.27.259
82.21080637500563,None,1.0,J,1.0,,103,brown,2023-11-05_20h14.27.259
84.30443070800538,None,1.0,B,1.0,,103,brown,2023-11-05_20h14.27.259
86.39414387500437,None,1.0,E,1.0,,103,brown,2023-11-05_20h14.27.259
88.47621037500357,None,1.0,P,1.0,,103,brown,2023-11-05_20h14.27.259
90.5680207080004,None,1.0,J,1.0,,103,brown,2023-11-05_20h14.27.259
92.66963045800368,None,1.0,S,1.0,,103,brown,2023-11-05_20h14.27.259
94.74412504200154,None,1.0,W,1.0,,103,brown,2023-11-05_20h14.27.259
96.82124104200192,None,1.0,H,1.0,,103,brown,2023-11-05_20h14.27.259
98.91083050000452,None,1.0,Y,1.0,,103,brown,2023-11-05_20h14.27.259
100.99876595800016,None,1.0,R,1.0,,103,brown,2023-11-05_20h14.27.259
103.5380846670014,None,1.0,Q,1.0,,103,brown,2023-11-05_20h14.27.259
105.61796479199984,None,1.0,G,1.0,,103,brown,2023-11-05_20h14.27.259
107.71500604200264,None,1.0,R,1.0,,103,brown,2023-11-05_20h14.27.259
109.79842454200116,None,1.0,T,1.0,,103,brown,2023-11-05_20h14.27.259
111.87595525000506,None,1.0,B,1.0,,103,brown,2023-11-05_20h14.27.259
113.96607212500383,None,1.0,X,1.0,,103,brown,2023-11-05_20h14.27.259
116.05139254200184,None,1.0,D,1.0,,103,brown,2023-11-05_20h14.27.259
118.14282737499887,None,1.0,T,1.0,,103,brown,2023-11-05_20h14.27.259
120.226366875002,None,1.0,R,1.0,,103,brown,2023-11-05_20h14.27.259
122.32268933299927,None,1.0,B,1.0,,103,brown,2023-11-05_20h14.27.259
124.41500654200354,['space'],1.0,B,1.0,[0.6589028330054134],103,brown,2023-11-05_20h14.27.259
126.49766108300535,None,1.0,G,1.0,,103,brown,2023-11-05_20h14.27.259
129.0539128330056,None,1.0,M,2.0,,103,brown,2023-11-05_20h14.27.259
131.13420274999953,None,1.0,G,2.0,,103,brown,2023-11-05_20h14.27.259
133.22223691700492,None,1.0,S,2.0,,103,brown,2023-11-05_20h14.27.259
135.30553983300342,None,1.0,X,2.0,,103,brown,2023-11-05_20h14.27.259
137.38888033300464,None,1.0,A,2.0,,103,brown,2023-11-05_20h14.27.259
139.4755979170004,None,1.0,C,2.0,,103,brown,2023-11-05_20h14.27.259
141.56349095800397,None,1.0,B,2.0,,103,brown,2023-11-05_20h14.27.259
143.6466779580005,None,1.0,E,2.0,,103,brown,2023-11-05_20h14.27.259
145.75289516700286,None,1.0,U,2.0,,103,brown,2023-11-05_20h14.27.259
147.81860562500515,None,1.0,P,2.0,,103,brown,2023-11-05_20h14.27.259
149.90122383300331,None,1.0,W,2.0,,103,brown,2023-11-05_20h14.27.259
151.9983748750019,None,1.0,Z,2.0,,103,brown,2023-11-05_20h14.27.259
154.6334214170056,None,1.0,W,2.0,,103,brown,2023-11-05_20h14.27.259
156.7141964170005,None,1.0,Q,2.0,,103,brown,2023-11-05_20h14.27.259
158.79769412500173,None,1.0,A,2.0,,103,brown,2023-11-05_20h14.27.259
160.8890192079998,None,1.0,E,2.0,,103,brown,2023-11-05_20h14.27.259
162.97228070800338,None,1.0,I,2.0,,103,brown,2023-11-05_20h14.27.259
165.05598137500056,None,1.0,U,2.0,,103,brown,2023-11-05_20h14.27.259
167.14841254200292,None,1.0,G,2.0,,103,brown,2023-11-05_20h14.27.259
169.23896391699964,None,1.0,J,2.0,,103,brown,2023-11-05_20h14.27.259
171.3228567920014,None,1.0,R,2.0,,103,brown,2023-11-05_20h14.27.259
173.4151959170049,None,1.0,U,2.0,,103,brown,2023-11-05_20h14.27.259
175.49725233299978,None,1.0,N,2.0,,103,brown,2023-11-05_20h14.27.259
177.58896779200586,None,1.0,I,2.0,,103,brown,2023-11-05_20h14.27.259
180.2405022919993,None,1.0,V,2.0,,103,brown,2023-11-05_20h14.27.259
182.3056712079997,None,1.0,L,2.0,,103,brown,2023-11-05_20h14.27.259
184.39846562500315,None,1.0,J,2.0,,103,brown,2023-11-05_20h14.27.259
186.4814711670042,None,1.0,D,2.0,,103,brown,2023-11-05_20h14.27.259
188.5723402500007,None,1.0,K,2.0,,103,brown,2023-11-05_20h14.27.259
190.6651308330038,None,1.0,O,2.0,,103,brown,2023-11-05_20h14.27.259
192.74696116700215,None,1.0,F,2.0,,103,brown,2023-11-05_20h14.27.259
194.8312060419994,None,1.0,C,2.0,,103,brown,2023-11-05_20h14.27.259
196.92238641700533,None,1.0,H,2.0,,103,brown,2023-11-05_20h14.27.259
199.00570325000444,None,1.0,F,2.0,,103,brown,2023-11-05_20h14.27.259
201.0985273750048,None,1.0,K,2.0,,103,brown,2023-11-05_20h14.27.259
203.1817880830058,None,1.0,E,2.0,,103,brown,2023-11-05_20h14.27.259
1.0926654580034665,None,1.0,W,1.0,,100,silence,2023-11-04_19h14.04.816
3.173947750001389,None,1.0,F,1.0,,100,silence,2023-11-04_19h14.04.816
5.267735790999723,None,1.0,P,1.0,,100,silence,2023-11-04_19h14.04.816
7.357483791005507,None,1.0,N,1.0,,100,silence,2023-11-04_19h14.04.816
9.452107208002417,None,1.0,W,1.0,,100,silence,2023-11-04_19h14.04.816
11.560825208005554,None,1.0,H,1.0,,100,silence,2023-11-04_19h14.04.816
13.629952333001713,None,1.0,G,1.0,,100,silence,2023-11-04_19h14.04.816
15.712738000001991,None,0.0,G,1.0,,100,silence,2023-11-04_19h14.04.816
17.81922383300116,None,1.0,T,1.0,,100,silence,2023-11-04_19h14.04.816
19.8934120000049,None,1.0,N,1.0,,100,silence,2023-11-04_19h14.04.816
21.97459700000036,['space'],1.0,N,1.0,[0.6266831250031828],100,silence,2023-11-04_19h14.04.816
24.069080666005902,['space'],1.0,N,1.0,[0.5531831249973038],100,silence,2023-11-04_19h14.04.816
26.75517479100381,None,1.0,N,2.0,,100,silence,2023-11-04_19h14.04.816
28.842898708004213,None,1.0,F,2.0,,100,silence,2023-11-04_19h14.04.816
30.928901166000287,None,1.0,A,2.0,,100,silence,2023-11-04_19h14.04.816
33.01324820800073,None,1.0,G,2.0,,100,silence,2023-11-04_19h14.04.816
35.11505695800588,None,1.0,C,2.0,,100,silence,2023-11-04_19h14.04.816
37.18079008300265,None,1.0,H,2.0,,100,silence,2023-11-04_19h14.04.816
39.26703554100095,None,1.0,O,2.0,,100,silence,2023-11-04_19h14.04.816
41.35437945800368,None,1.0,Q,2.0,,100,silence,2023-11-04_19h14.04.816
43.44006437500502,None,1.0,V,2.0,,100,silence,2023-11-04_19h14.04.816
45.534627458000614,None,1.0,Z,2.0,,100,silence,2023-11-04_19h14.04.816
47.62350579100166,None,1.0,X,2.0,,100,silence,2023-11-04_19h14.04.816
49.73189575000288,None,1.0,L,2.0,,100,silence,2023-11-04_19h14.04.816
53.44872862500051,None,1.0,I,2.0,,100,silence,2023-11-04_19h14.04.816
55.530607749999035,None,1.0,L,2.0,,100,silence,2023-11-04_19h14.04.816
57.61487075000332,None,1.0,Y,2.0,,100,silence,2023-11-04_19h14.04.816
59.70833629100525,None,1.0,M,2.0,,100,silence,2023-11-04_19h14.04.816
61.7984557910022,None,1.0,A,2.0,,100,silence,2023-11-04_19h14.04.816
63.87602945799881,None,1.0,S,2.0,,100,silence,2023-11-04_19h14.04.816
65.95911783300107,['space'],1.0,A,2.0,[0.8980593329979456],100,silence,2023-11-04_19h14.04.816
68.04591620800056,None,1.0,K,2.0,,100,silence,2023-11-04_19h14.04.816
70.13898766600323,None,1.0,Z,2.0,,100,silence,2023-11-04_19h14.04.816
72.22344425000483,None,1.0,U,2.0,,100,silence,2023-11-04_19h14.04.816
74.30713787500281,None,1.0,E,2.0,,100,silence,2023-11-04_19h14.04.816
76.38907225000003,None,1.0,H,2.0,,100,silence,2023-11-04_19h14.04.816
79.62547774999985,None,1.0,P,1.0,,100,silence,2023-11-04_19h14.04.816
81.70545762500115,None,1.0,E,1.0,,100,silence,2023-11-04_19h14.04.816
83.78865545800363,None,1.0,A,1.0,,100,silence,2023-11-04_19h14.04.816
85.8836299579998,None,1.0,B,1.0,,100,silence,2023-11-04_19h14.04.816
87.968236875,None,1.0,Q,1.0,,100,silence,2023-11-04_19h14.04.816
90.0510981250045,None,1.0,B,1.0,,100,silence,2023-11-04_19h14.04.816
92.13862599999992,None,1.0,V,1.0,,100,silence,2023-11-04_19h14.04.816
94.22188825000194,None,1.0,T,1.0,,100,silence,2023-11-04_19h14.04.816
96.30538837500352,None,1.0,W,1.0,,100,silence,2023-11-04_19h14.04.816
98.38865770800476,None,1.0,K,1.0,,100,silence,2023-11-04_19h14.04.816
100.48179950000484,None,1.0,A,1.0,,100,silence,2023-11-04_19h14.04.816
102.56358708300104,None,1.0,F,1.0,,100,silence,2023-11-04_19h14.04.816
105.5012172909992,None,1.0,I,1.0,,100,silence,2023-11-04_19h14.04.816
107.58124908299942,None,1.0,L,1.0,,100,silence,2023-11-04_19h14.04.816
109.67272049999885,None,1.0,B,1.0,,100,silence,2023-11-04_19h14.04.816
111.76512866600387,None,1.0,S,1.0,,100,silence,2023-11-04_19h14.04.816
113.84361183299916,None,1.0,N,1.0,,100,silence,2023-11-04_19h14.04.816
115.93234162500448,None,1.0,J,1.0,,100,silence,2023-11-04_19h14.04.816
118.02239745800034,None,1.0,H,1.0,,100,silence,2023-11-04_19h14.04.816
120.1051917500008,None,1.0,G,1.0,,100,silence,2023-11-04_19h14.04.816
122.1936927909992,None,1.0,M,1.0,,100,silence,2023-11-04_19h14.04.816
124.29206037500262,None,1.0,D,1.0,,100,silence,2023-11-04_19h14.04.816
126.3725290000002,None,1.0,L,1.0,,100,silence,2023-11-04_19h14.04.816
128.46402804100217,None,1.0,G,1.0,,100,silence,2023-11-04_19h14.04.816
132.78795341600198,None,1.0,V,2.0,,100,silence,2023-11-04_19h14.04.816
134.8806291660003,None,1.0,C,2.0,,100,silence,2023-11-04_19h14.04.816
136.9639070830017,None,1.0,T,2.0,,100,silence,2023-11-04_19h14.04.816
139.05702441600442,None,1.0,K,2.0,,100,silence,2023-11-04_19h14.04.816
141.14008166600252,None,1.0,K,2.0,,100,silence,2023-11-04_19h14.04.816
143.2221465410039,None,1.0,T,2.0,,100,silence,2023-11-04_19h14.04.816
145.3152742500024,None,1.0,C,2.0,,100,silence,2023-11-04_19h14.04.816
147.39706704100536,None,1.0,O,2.0,,100,silence,2023-11-04_19h14.04.816
149.4817617910012,None,1.0,I,2.0,,100,silence,2023-11-04_19h14.04.816
151.56791916600196,None,1.0,X,2.0,,100,silence,2023-11-04_19h14.04.816
153.66380975000357,None,1.0,O,2.0,,100,silence,2023-11-04_19h14.04.816
155.74695800000336,None,1.0,D,2.0,,100,silence,2023-11-04_19h14.04.816
158.63419366600283,None,1.0,X,1.0,,100,silence,2023-11-04_19h14.04.816
160.71787062500516,None,1.0,K,1.0,,100,silence,2023-11-04_19h14.04.816
162.81108250000398,None,1.0,H,1.0,,100,silence,2023-11-04_19h14.04.816
164.89317550000123,None,1.0,L,1.0,,100,silence,2023-11-04_19h14.04.816
166.97757545800414,None,1.0,Y,1.0,,100,silence,2023-11-04_19h14.04.816
169.0591594159996,None,1.0,F,1.0,,100,silence,2023-11-04_19h14.04.816
171.14341120800236,None,1.0,J,1.0,,100,silence,2023-11-04_19h14.04.816
173.2348610830013,None,1.0,F,1.0,,100,silence,2023-11-04_19h14.04.816
175.31934595799976,['space'],1.0,F,1.0,[0.7684812079969561],100,silence,2023-11-04_19h14.04.816
177.4028380000018,None,1.0,D,1.0,,100,silence,2023-11-04_19h14.04.816
179.4888291660027,None,1.0,L,1.0,,100,silence,2023-11-04_19h14.04.816
181.5797301660059,None,1.0,R,1.0,,100,silence,2023-11-04_19h14.04.816
185.23054891599895,None,1.0,V,2.0,,100,silence,2023-11-04_19h14.04.816
187.31846841600057,None,1.0,C,2.0,,100,silence,2023-11-04_19h14.04.816
189.40276241600077,None,1.0,B,2.0,,100,silence,2023-11-04_19h14.04.816
191.4845422080034,['space'],1.0,C,2.0,[0.5003151249984512],100,silence,2023-11-04_19h14.04.816
193.57675812500383,None,1.0,Z,2.0,,100,silence,2023-11-04_19h14.04.816
195.668222332999,None,1.0,L,2.0,,100,silence,2023-11-04_19h14.04.816
197.75149316600437,None,1.0,S,2.0,,100,silence,2023-11-04_19h14.04.816
199.84460695800223,None,1.0,W,2.0,,100,silence,2023-11-04_19h14.04.816
201.9264790830057,None,1.0,Q,2.0,,100,silence,2023-11-04_19h14.04.816
204.0099362500041,None,1.0,I,2.0,,100,silence,2023-11-04_19h14.04.816
206.09392229100197,None,1.0,A,2.0,,100,silence,2023-11-04_19h14.04.816
208.185345124999,None,1.0,L,2.0,,100,silence,2023-11-04_19h14.04.816
11.678747083999042,None,1.0,L,2.0,,101,brown,2023-11-04_19h35.29.036
13.767057249999198,None,1.0,M,2.0,,101,brown,2023-11-04_19h35.29.036
15.847335209000448,['space'],1.0,L,2.0,[0.46427016699453816],101,brown,2023-11-04_19h35.29.036
17.936770708998665,None,1.0,W,2.0,,101,brown,2023-11-04_19h35.29.036
20.020016541995577,None,1.0,O,2.0,,101,brown,2023-11-04_19h35.29.036
22.104514791994006,['space'],1.0,W,2.0,[0.5996359580021817],101,brown,2023-11-04_19h35.29.036
24.197589625000543,['space'],1.0,O,2.0,[0.6618032910046168],101,brown,2023-11-04_19h35.29.036
26.288323666994984,None,1.0,Z,2.0,,101,brown,2023-11-04_19h35.29.036
28.372387499999604,None,1.0,T,2.0,,101,brown,2023-11-04_19h35.29.036
30.455106834000617,['space'],1.0,Z,2.0,[0.46085441700415686],101,brown,2023-11-04_19h35.29.036
32.541322791999846,None,1.0,H,2.0,,101,brown,2023-11-04_19h35.29.036
34.630050374995335,['space'],1.0,Z,2.0,[0.4403919169999426],101,brown,2023-11-04_19h35.29.036
38.52415249999467,None,1.0,W,1.0,,101,brown,2023-11-04_19h35.29.036
40.60818350000045,None,1.0,X,1.0,,101,brown,2023-11-04_19h35.29.036
42.69110404199455,None,1.0,A,1.0,,101,brown,2023-11-04_19h35.29.036
44.783250249995035,None,1.0,V,1.0,,101,brown,2023-11-04_19h35.29.036
46.87252162499499,['space'],1.0,V,1.0,[0.41023649999988265],101,brown,2023-11-04_19h35.29.036
48.95014191699738,None,1.0,N,1.0,,101,brown,2023-11-04_19h35.29.036
51.03987091699673,None,1.0,G,1.0,,101,brown,2023-11-04_19h35.29.036
53.12318645899359,None,1.0,F,1.0,,101,brown,2023-11-04_19h35.29.036
55.21842491699499,['space'],1.0,F,1.0,[0.45664304200181505],101,brown,2023-11-04_19h35.29.036
57.301652499998454,None,1.0,M,1.0,,101,brown,2023-11-04_19h35.29.036
59.393549124994024,['space'],1.0,M,1.0,[0.41232483299972955],101,brown,2023-11-04_19h35.29.036
61.47566291700059,None,1.0,X,1.0,,101,brown,2023-11-04_19h35.29.036
65.422186374999,None,1.0,E,2.0,,101,brown,2023-11-04_19h35.29.036
67.500956166994,None,1.0,N,2.0,,101,brown,2023-11-04_19h35.29.036
69.58827966699755,None,1.0,Q,2.0,,101,brown,2023-11-04_19h35.29.036
71.67153841699474,None,1.0,V,2.0,,101,brown,2023-11-04_19h35.29.036
73.76116945899412,None,1.0,C,2.0,,101,brown,2023-11-04_19h35.29.036
75.84669691699673,None,1.0,O,2.0,,101,brown,2023-11-04_19h35.29.036
77.93060508399503,None,1.0,I,2.0,,101,brown,2023-11-04_19h35.29.036
80.01737966699875,None,1.0,F,2.0,,101,brown,2023-11-04_19h35.29.036
82.10209416699945,None,1.0,W,2.0,,101,brown,2023-11-04_19h35.29.036
84.19251791699935,None,1.0,N,2.0,,101,brown,2023-11-04_19h35.29.036
86.28382295899792,None,1.0,I,2.0,,101,brown,2023-11-04_19h35.29.036
88.37684191699373,None,1.0,O,2.0,,101,brown,2023-11-04_19h35.29.036
98.59700929199607,None,1.0,R,2.0,,101,brown,2023-11-04_19h35.29.036
100.6796438339952,None,1.0,U,2.0,,101,brown,2023-11-04_19h35.29.036
102.76859374999913,None,1.0,G,2.0,,101,brown,2023-11-04_19h35.29.036
104.85049474999688,None,1.0,E,2.0,,101,brown,2023-11-04_19h35.29.036
106.9365508339979,None,1.0,M,2.0,,101,brown,2023-11-04_19h35.29.036
109.03458312499424,None,1.0,Q,2.0,,101,brown,2023-11-04_19h35.29.036
111.1255860839956,None,1.0,O,2.0,,101,brown,2023-11-04_19h35.29.036
113.2104539169959,None,1.0,B,2.0,,101,brown,2023-11-04_19h35.29.036
115.30190474999836,None,1.0,B,2.0,,101,brown,2023-11-04_19h35.29.036
117.38538999999582,None,1.0,G,2.0,,101,brown,2023-11-04_19h35.29.036
119.46938645899354,None,1.0,S,2.0,,101,brown,2023-11-04_19h35.29.036
121.55445737499394,None,1.0,Y,2.0,,101,brown,2023-11-04_19h35.29.036
126.74862749999738,None,1.0,H,1.0,,101,brown,2023-11-04_19h35.29.036
128.83424304199434,None,1.0,M,1.0,,101,brown,2023-11-04_19h35.29.036
130.91864462499507,None,1.0,N,1.0,,101,brown,2023-11-04_19h35.29.036
133.00097337499756,None,1.0,Z,1.0,,101,brown,2023-11-04_19h35.29.036
135.09359374999622,None,1.0,U,1.0,,101,brown,2023-11-04_19h35.29.036
137.17161945899716,None,1.0,S,1.0,,101,brown,2023-11-04_19h35.29.036
139.25782145899575,None,1.0,D,1.0,,101,brown,2023-11-04_19h35.29.036
141.35088749999704,None,1.0,S,1.0,,101,brown,2023-11-04_19h35.29.036
143.4339058339974,None,1.0,Y,1.0,,101,brown,2023-11-04_19h35.29.036
145.5174379589953,None,1.0,Z,1.0,,101,brown,2023-11-04_19h35.29.036
147.60271762499906,None,1.0,P,1.0,,101,brown,2023-11-04_19h35.29.036
149.68392587499693,None,1.0,G,1.0,,101,brown,2023-11-04_19h35.29.036
154.5790302499954,None,1.0,Y,1.0,,101,brown,2023-11-04_19h35.29.036
156.66331083399564,None,1.0,U,1.0,,101,brown,2023-11-04_19h35.29.036
158.74658474999887,None,1.0,H,1.0,,101,brown,2023-11-04_19h35.29.036
160.82990491699456,None,1.0,N,1.0,,101,brown,2023-11-04_19h35.29.036
162.92149312499532,None,1.0,L,1.0,,101,brown,2023-11-04_19h35.29.036
165.0045523749941,None,1.0,X,1.0,,101,brown,2023-11-04_19h35.29.036
167.08828104199347,None,1.0,P,1.0,,101,brown,2023-11-04_19h35.29.036
169.18957612499798,None,1.0,K,1.0,,101,brown,2023-11-04_19h35.29.036
171.26332016699598,None,1.0,L,1.0,,101,brown,2023-11-04_19h35.29.036
173.35501595899404,None,1.0,E,1.0,,101,brown,2023-11-04_19h35.29.036
175.43898512499436,None,1.0,T,1.0,,101,brown,2023-11-04_19h35.29.036
177.52154408399656,None,1.0,S,1.0,,101,brown,2023-11-04_19h35.29.036
200.589570791999,None,1.0,J,2.0,,101,brown,2023-11-04_19h35.29.036
202.6812623339938,None,1.0,F,2.0,,101,brown,2023-11-04_19h35.29.036
204.75899674999528,None,1.0,R,2.0,,101,brown,2023-11-04_19h35.29.036
206.84659329199349,None,1.0,L,2.0,,101,brown,2023-11-04_19h35.29.036
208.93965287500032,None,1.0,L,2.0,,101,brown,2023-11-04_19h35.29.036
211.02290654199896,None,1.0,G,2.0,,101,brown,2023-11-04_19h35.29.036
213.10632891699788,None,1.0,T,2.0,,101,brown,2023-11-04_19h35.29.036
215.1835600839986,None,1.0,T,2.0,,101,brown,2023-11-04_19h35.29.036
217.27163570899577,None,1.0,C,2.0,,101,brown,2023-11-04_19h35.29.036
219.3639877919995,None,1.0,Q,2.0,,101,brown,2023-11-04_19h35.29.036
221.4465593339992,None,1.0,K,2.0,,101,brown,2023-11-04_19h35.29.036
223.53963720899628,None,1.0,U,2.0,,101,brown,2023-11-04_19h35.29.036
228.7135554169945,None,1.0,W,1.0,,101,brown,2023-11-04_19h35.29.036
230.8054632499989,None,1.0,R,1.0,,101,brown,2023-11-04_19h35.29.036
232.89261937499396,None,1.0,I,1.0,,101,brown,2023-11-04_19h35.29.036
234.98839045899513,None,1.0,Z,1.0,,101,brown,2023-11-04_19h35.29.036
237.0813527499995,None,1.0,G,1.0,,101,brown,2023-11-04_19h35.29.036
239.1633294589992,None,1.0,R,1.0,,101,brown,2023-11-04_19h35.29.036
241.24665454199567,None,1.0,A,1.0,,101,brown,2023-11-04_19h35.29.036
243.3303526249947,None,1.0,P,1.0,,101,brown,2023-11-04_19h35.29.036
245.421825874997,None,1.0,J,1.0,,101,brown,2023-11-04_19h35.29.036
247.5133286669952,None,1.0,E,1.0,,101,brown,2023-11-04_19h35.29.036
249.59664387499652,None,1.0,O,1.0,,101,brown,2023-11-04_19h35.29.036
251.68963312499545,None,1.0,H,1.0,,101,brown,2023-11-04_19h35.29.036
3.063467166997725,None,1.0,K,2.0,,105,silence,2023-11-07_13h52.38.388
5.150232624990167,None,1.0,P,2.0,,105,silence,2023-11-07_13h52.38.388
7.234860208991449,['space'],1.0,K,2.0,[0.8084917499945732],105,silence,2023-11-07_13h52.38.388
9.324600166990422,None,1.0,K,2.0,,105,silence,2023-11-07_13h52.38.388
11.410420333995717,['space'],1.0,K,2.0,[0.46670750000339467],105,silence,2023-11-07_13h52.38.388
13.501495249991422,None,1.0,Q,2.0,,105,silence,2023-11-07_13h52.38.388
15.585171708997224,None,1.0,G,2.0,,105,silence,2023-11-07_13h52.38.388
17.678267999988748,['space'],1.0,Q,2.0,[0.5846614170004614],105,silence,2023-11-07_13h52.38.388
19.772467749993663,None,1.0,Y,2.0,,105,silence,2023-11-07_13h52.38.388
21.86233145899314,None,0.0,Q,2.0,,105,silence,2023-11-07_13h52.38.388
23.940421208986663,None,1.0,P,2.0,,105,silence,2023-11-07_13h52.38.388
26.027734584000427,None,1.0,Y,2.0,,105,silence,2023-11-07_13h52.38.388
29.750962749996688,None,1.0,P,2.0,,105,silence,2023-11-07_13h52.38.388
31.83468504199118,None,1.0,I,2.0,,105,silence,2023-11-07_13h52.38.388
33.93737145898922,None,1.0,Z,2.0,,105,silence,2023-11-07_13h52.38.388
36.02080516699061,None,1.0,F,2.0,,105,silence,2023-11-07_13h52.38.388
38.089765500000794,None,1.0,T,2.0,,105,silence,2023-11-07_13h52.38.388
40.19579329199041,None,1.0,S,2.0,,105,silence,2023-11-07_13h52.38.388
42.287477666992345,None,1.0,J,2.0,,105,silence,2023-11-07_13h52.38.388
44.35622587498801,None,1.0,U,2.0,,105,silence,2023-11-07_13h52.38.388
46.45448991699959,None,1.0,W,2.0,,105,silence,2023-11-07_13h52.38.388
48.535901791998185,None,1.0,I,2.0,,105,silence,2023-11-07_13h52.38.388
50.62239187498926,None,1.0,B,2.0,,105,silence,2023-11-07_13h52.38.388
52.709260208997875,None,1.0,V,2.0,,105,silence,2023-11-07_13h52.38.388
55.99400524998782,None,1.0,W,1.0,,105,silence,2023-11-07_13h52.38.388
58.08320491699851,None,1.0,U,1.0,,105,silence,2023-11-07_13h52.38.388
60.16741758398712,None,1.0,X,1.0,,105,silence,2023-11-07_13h52.38.388
62.262519625001005,None,1.0,J,1.0,,105,silence,2023-11-07_13h52.38.388
64.34949183400022,None,1.0,H,1.0,,105,silence,2023-11-07_13h52.38.388
66.43685179199383,None,1.0,G,1.0,,105,silence,2023-11-07_13h52.38.388
68.53746583400061,None,1.0,D,1.0,,105,silence,2023-11-07_13h52.38.388
70.62090312498913,None,1.0,J,1.0,,105,silence,2023-11-07_13h52.38.388
72.69319541699952,None,1.0,N,1.0,,105,silence,2023-11-07_13h52.38.388
74.78035733399156,None,1.0,O,1.0,,105,silence,2023-11-07_13h52.38.388
76.86089520899986,None,1.0,D,1.0,,105,silence,2023-11-07_13h52.38.388
78.95400266700017,None,1.0,H,1.0,,105,silence,2023-11-07_13h52.38.388
83.34584454199648,None,1.0,H,2.0,,105,silence,2023-11-07_13h52.38.388
85.4277284169948,None,1.0,G,2.0,,105,silence,2023-11-07_13h52.38.388
87.52070279199688,None,1.0,G,2.0,,105,silence,2023-11-07_13h52.38.388
89.60586237499956,None,1.0,E,2.0,,105,silence,2023-11-07_13h52.38.388
91.69977933399788,None,1.0,O,2.0,,105,silence,2023-11-07_13h52.38.388
93.77963287499732,None,1.0,W,2.0,,105,silence,2023-11-07_13h52.38.388
95.86518475000048,None,1.0,H,2.0,,105,silence,2023-11-07_13h52.38.388
97.94878629199228,None,1.0,V,2.0,,105,silence,2023-11-07_13h52.38.388
100.03198533398972,None,1.0,J,2.0,,105,silence,2023-11-07_13h52.38.388
102.11524829200062,None,1.0,D,2.0,,105,silence,2023-11-07_13h52.38.388
104.20683270899464,None,1.0,O,2.0,,105,silence,2023-11-07_13h52.38.388
106.29977449998842,None,1.0,E,2.0,,105,silence,2023-11-07_13h52.38.388
109.79865483399772,None,1.0,Y,1.0,,105,silence,2023-11-07_13h52.38.388
111.89035691699246,None,1.0,Z,1.0,,105,silence,2023-11-07_13h52.38.388
113.97476374999678,None,1.0,U,1.0,,105,silence,2023-11-07_13h52.38.388
116.05737787499676,None,1.0,O,1.0,,105,silence,2023-11-07_13h52.38.388
118.14741474999757,None,1.0,R,1.0,,105,silence,2023-11-07_13h52.38.388
120.23183304199485,None,1.0,U,1.0,,105,silence,2023-11-07_13h52.38.388
122.3234530419868,None,1.0,V,1.0,,105,silence,2023-11-07_13h52.38.388
124.40776179199749,None,1.0,W,1.0,,105,silence,2023-11-07_13h52.38.388
126.49908441699516,None,1.0,Y,1.0,,105,silence,2023-11-07_13h52.38.388
128.5915816249908,None,1.0,S,1.0,,105,silence,2023-11-07_13h52.38.388
130.67368599999463,None,1.0,X,1.0,,105,silence,2023-11-07_13h52.38.388
132.7619562089967,None,1.0,Q,1.0,,105,silence,2023-11-07_13h52.38.388
139.95624604199838,None,1.0,J,2.0,,105,silence,2023-11-07_13h52.38.388
142.0364160839963,None,1.0,W,2.0,,105,silence,2023-11-07_13h52.38.388
144.12887929199496,None,1.0,F,2.0,,105,silence,2023-11-07_13h52.38.388
146.2207684169989,None,1.0,T,2.0,,105,silence,2023-11-07_13h52.38.388
148.30265704198973,None,1.0,N,2.0,,105,silence,2023-11-07_13h52.38.388
150.3863870419882,None,1.0,S,2.0,,105,silence,2023-11-07_13h52.38.388
152.47383820899995,None,1.0,H,2.0,,105,silence,2023-11-07_13h52.38.388
154.55878012499306,None,1.0,P,2.0,,105,silence,2023-11-07_13h52.38.388
156.6448211669922,None,1.0,Q,2.0,,105,silence,2023-11-07_13h52.38.388
158.7290471669985,None,1.0,T,2.0,,105,silence,2023-11-07_13h52.38.388
160.8209643339942,['space'],1.0,Q,2.0,[0.9287728329945821],105,silence,2023-11-07_13h52.38.388
162.9113635419926,None,1.0,F,2.0,,105,silence,2023-11-07_13h52.38.388
167.03229174998705,None,1.0,X,1.0,,105,silence,2023-11-07_13h52.38.388
169.12081149998994,None,1.0,N,1.0,,105,silence,2023-11-07_13h52.38.388
171.20277229198837,None,1.0,D,1.0,,105,silence,2023-11-07_13h52.38.388
173.29474945898983,None,1.0,Y,1.0,,105,silence,2023-11-07_13h52.38.388
175.3865879169898,None,1.0,W,1.0,,105,silence,2023-11-07_13h52.38.388
177.4705586249911,None,1.0,I,1.0,,105,silence,2023-11-07_13h52.38.388
179.56112016699626,None,1.0,U,1.0,,105,silence,2023-11-07_13h52.38.388
181.64733308399445,None,1.0,B,1.0,,105,silence,2023-11-07_13h52.38.388
183.731917083991,None,1.0,K,1.0,,105,silence,2023-11-07_13h52.38.388
185.8281433339871,None,1.0,I,1.0,,105,silence,2023-11-07_13h52.38.388
187.91216083399195,None,1.0,N,1.0,,105,silence,2023-11-07_13h52.38.388
189.994497208987,None,1.0,P,1.0,,105,silence,2023-11-07_13h52.38.388
193.65595837499131,None,1.0,G,1.0,,105,silence,2023-11-07_13h52.38.388
195.7459298749891,None,1.0,Q,1.0,,105,silence,2023-11-07_13h52.38.388
197.82623995898757,None,1.0,L,1.0,,105,silence,2023-11-07_13h52.38.388
199.91974708400085,None,1.0,V,1.0,,105,silence,2023-11-07_13h52.38.388
202.00353954199815,None,1.0,K,1.0,,105,silence,2023-11-07_13h52.38.388
204.0979525839939,None,1.0,M,1.0,,105,silence,2023-11-07_13h52.38.388
206.1864075419871,None,1.0,F,1.0,,105,silence,2023-11-07_13h52.38.388
208.26950216699333,None,1.0,L,1.0,,105,silence,2023-11-07_13h52.38.388
210.35294112499105,None,1.0,Y,1.0,,105,silence,2023-11-07_13h52.38.388
212.45441108399243,None,1.0,A,1.0,,105,silence,2023-11-07_13h52.38.388
214.51970574998995,None,1.0,Z,1.0,,105,silence,2023-11-07_13h52.38.388
216.60665770899504,None,1.0,G,1.0,,105,silence,2023-11-07_13h52.38.388
0.5359335419998388,None,1.0,Z,1.0,,103,pink,2023-11-05_20h25.33.187
2.619307791996107,['space'],1.0,Z,1.0,[0.5794057919993065],103,pink,2023-11-05_20h25.33.187
4.7138976249989355,None,1.0,D,1.0,,103,pink,2023-11-05_20h25.33.187
6.799825333000626,['space'],1.0,D,1.0,[0.41668387499521486],103,pink,2023-11-05_20h25.33.187
8.895023416996992,None,1.0,Y,1.0,,103,pink,2023-11-05_20h25.33.187
10.9797980000003,None,1.0,C,1.0,,103,pink,2023-11-05_20h25.33.187
13.069294417000492,['space'],1.0,C,1.0,[0.5145865410013357],103,pink,2023-11-05_20h25.33.187
15.154306666998307,None,1.0,M,1.0,,103,pink,2023-11-05_20h25.33.187
17.248739291993843,None,1.0,S,1.0,,103,pink,2023-11-05_20h25.33.187
19.336736291996203,None,0.0,S,1.0,,103,pink,2023-11-05_20h25.33.187
21.42072158299561,['space'],1.0,S,1.0,[0.6498433329979889],103,pink,2023-11-05_20h25.33.187
23.517425291996915,None,1.0,K,1.0,,103,pink,2023-11-05_20h25.33.187
26.090777332996367,None,1.0,S,1.0,,103,pink,2023-11-05_20h25.33.187
28.17278729199461,None,1.0,Z,1.0,,103,pink,2023-11-05_20h25.33.187
30.261590124995564,None,1.0,E,1.0,,103,pink,2023-11-05_20h25.33.187
32.35265049999725,None,1.0,C,1.0,,103,pink,2023-11-05_20h25.33.187
34.43608370799484,None,1.0,M,1.0,,103,pink,2023-11-05_20h25.33.187
36.5286613749995,None,1.0,B,1.0,,103,pink,2023-11-05_20h25.33.187
38.611968916993646,None,1.0,R,1.0,,103,pink,2023-11-05_20h25.33.187
40.70328508300008,None,1.0,H,1.0,,103,pink,2023-11-05_20h25.33.187
42.7932446249979,None,1.0,Y,1.0,,103,pink,2023-11-05_20h25.33.187
44.88611258299352,None,1.0,R,1.0,,103,pink,2023-11-05_20h25.33.187
46.97768041699601,None,1.0,L,1.0,,103,pink,2023-11-05_20h25.33.187
49.078118582998286,None,1.0,N,1.0,,103,pink,2023-11-05_20h25.33.187
51.61441358299635,None,1.0,G,1.0,,103,pink,2023-11-05_20h25.33.187
53.69753116699576,['space'],1.0,G,1.0,[0.595808833000774],103,pink,2023-11-05_20h25.33.187
55.78870212499896,None,1.0,U,1.0,,103,pink,2023-11-05_20h25.33.187
57.88106675000017,None,1.0,K,1.0,,103,pink,2023-11-05_20h25.33.187
59.9745536249975,None,1.0,X,1.0,,103,pink,2023-11-05_20h25.33.187
62.06415837499662,None,1.0,H,1.0,,103,pink,2023-11-05_20h25.33.187
64.15688324999792,None,1.0,D,1.0,,103,pink,2023-11-05_20h25.33.187
66.24317445799534,None,1.0,S,1.0,,103,pink,2023-11-05_20h25.33.187
68.32863512499898,None,1.0,V,1.0,,103,pink,2023-11-05_20h25.33.187
70.41423979200044,None,1.0,U,1.0,,103,pink,2023-11-05_20h25.33.187
72.49770799999533,None,1.0,Y,1.0,,103,pink,2023-11-05_20h25.33.187
74.58416112499981,None,1.0,T,1.0,,103,pink,2023-11-05_20h25.33.187
77.2271624999994,None,1.0,O,2.0,,103,pink,2023-11-05_20h25.33.187
79.31891508300032,None,1.0,J,2.0,,103,pink,2023-11-05_20h25.33.187
81.40428337499907,None,1.0,P,2.0,,103,pink,2023-11-05_20h25.33.187
83.49365966699406,None,1.0,E,2.0,,103,pink,2023-11-05_20h25.33.187
85.57684087499365,None,1.0,Y,2.0,,103,pink,2023-11-05_20h25.33.187
87.66829083299672,None,1.0,M,2.0,,103,pink,2023-11-05_20h25.33.187
89.75160612499894,None,1.0,P,2.0,,103,pink,2023-11-05_20h25.33.187
91.83498870799669,None,1.0,L,2.0,,103,pink,2023-11-05_20h25.33.187
93.91830612500053,None,1.0,S,2.0,,103,pink,2023-11-05_20h25.33.187
96.01107245799358,None,1.0,R,2.0,,103,pink,2023-11-05_20h25.33.187
98.0883393749973,None,1.0,W,2.0,,103,pink,2023-11-05_20h25.33.187
100.177769832997,None,1.0,E,2.0,,103,pink,2023-11-05_20h25.33.187
102.75299495799844,None,1.0,T,2.0,,103,pink,2023-11-05_20h25.33.187
104.81831395799964,None,1.0,J,2.0,,103,pink,2023-11-05_20h25.33.187
106.90275804200064,None,1.0,I,2.0,,103,pink,2023-11-05_20h25.33.187
108.98507925000013,None,1.0,M,2.0,,103,pink,2023-11-05_20h25.33.187
111.06838379200052,None,1.0,R,2.0,,103,pink,2023-11-05_20h25.33.187
113.1611772920005,None,1.0,K,2.0,,103,pink,2023-11-05_20h25.33.187
115.2516523749946,None,1.0,I,2.0,,103,pink,2023-11-05_20h25.33.187
117.3354268749972,None,1.0,Z,2.0,,103,pink,2023-11-05_20h25.33.187
119.42211320799834,None,1.0,F,2.0,,103,pink,2023-11-05_20h25.33.187
121.50168204199872,None,1.0,C,2.0,,103,pink,2023-11-05_20h25.33.187
123.5944539169941,None,1.0,Y,2.0,,103,pink,2023-11-05_20h25.33.187
125.67789120799716,None,1.0,B,2.0,,103,pink,2023-11-05_20h25.33.187
128.39919904199633,None,1.0,H,1.0,,103,pink,2023-11-05_20h25.33.187
130.4850261669999,None,1.0,D,1.0,,103,pink,2023-11-05_20h25.33.187
132.56831308300025,None,1.0,T,1.0,,103,pink,2023-11-05_20h25.33.187
134.65167474999907,None,1.0,D,1.0,,103,pink,2023-11-05_20h25.33.187
136.73667479199503,None,1.0,Y,1.0,,103,pink,2023-11-05_20h25.33.187
138.82219283299492,None,1.0,A,1.0,,103,pink,2023-11-05_20h25.33.187
140.9106099579949,None,1.0,W,1.0,,103,pink,2023-11-05_20h25.33.187
142.99311858299916,None,1.0,A,1.0,,103,pink,2023-11-05_20h25.33.187
145.07695374999457,None,1.0,X,1.0,,103,pink,2023-11-05_20h25.33.187
147.1600302079969,None,1.0,Z,1.0,,103,pink,2023-11-05_20h25.33.187
149.2524975829947,None,1.0,A,1.0,,103,pink,2023-11-05_20h25.33.187
151.34452816699925,None,1.0,C,1.0,,103,pink,2023-11-05_20h25.33.187
153.97238791699783,None,1.0,U,2.0,,103,pink,2023-11-05_20h25.33.187
156.06840087499586,None,1.0,I,2.0,,103,pink,2023-11-05_20h25.33.187
158.1546612079983,None,1.0,Q,2.0,,103,pink,2023-11-05_20h25.33.187
160.24365287499677,None,1.0,W,2.0,,103,pink,2023-11-05_20h25.33.187
162.3350358749958,None,1.0,A,2.0,,103,pink,2023-11-05_20h25.33.187
164.4183869579938,None,1.0,O,2.0,,103,pink,2023-11-05_20h25.33.187
166.5112138330005,None,1.0,N,2.0,,103,pink,2023-11-05_20h25.33.187
168.593222083,None,1.0,H,2.0,,103,pink,2023-11-05_20h25.33.187
170.6850787919975,None,1.0,K,2.0,,103,pink,2023-11-05_20h25.33.187
172.77846133300045,None,1.0,B,2.0,,103,pink,2023-11-05_20h25.33.187
174.86844608299725,None,1.0,D,2.0,,103,pink,2023-11-05_20h25.33.187
176.95176999999967,None,1.0,T,2.0,,103,pink,2023-11-05_20h25.33.187
179.62217829199653,None,1.0,I,2.0,,103,pink,2023-11-05_20h25.33.187
181.70202079199953,None,1.0,A,2.0,,103,pink,2023-11-05_20h25.33.187
183.7940475419964,None,1.0,C,2.0,,103,pink,2023-11-05_20h25.33.187
185.87698149999775,None,1.0,F,2.0,,103,pink,2023-11-05_20h25.33.187
187.9685368749997,None,1.0,N,2.0,,103,pink,2023-11-05_20h25.33.187
190.06116562499665,None,1.0,U,2.0,,103,pink,2023-11-05_20h25.33.187
192.1445771669969,None,1.0,E,2.0,,103,pink,2023-11-05_20h25.33.187
194.2273777079972,None,1.0,H,2.0,,103,pink,2023-11-05_20h25.33.187
196.31862941699364,None,1.0,P,2.0,,103,pink,2023-11-05_20h25.33.187
198.40300849999767,None,1.0,X,2.0,,103,pink,2023-11-05_20h25.33.187
200.484472791999,None,1.0,T,2.0,,103,pink,2023-11-05_20h25.33.187
202.5720239999937,None,1.0,N,2.0,,103,pink,2023-11-05_20h25.33.187
26.57679962500697,None,1.0,T,1.0,,105,pink,2023-11-07_13h42.36.166
28.65740537500824,None,1.0,Y,1.0,,105,pink,2023-11-07_13h42.36.166
30.74021016700135,['space'],1.0,Y,1.0,[0.4806338750058785],105,pink,2023-11-07_13h42.36.166
32.82417641700886,['space'],1.0,Y,1.0,[0.502171833999455],105,pink,2023-11-07_13h42.36.166
34.9153817089973,None,1.0,L,1.0,,105,pink,2023-11-07_13h42.36.166
37.00547366699902,['space'],1.0,L,1.0,[0.41357554199930746],105,pink,2023-11-07_13h42.36.166
39.08861825001077,None,1.0,V,1.0,,105,pink,2023-11-07_13h42.36.166
41.18065879200003,None,1.0,D,1.0,,105,pink,2023-11-07_13h42.36.166
43.26525587499782,None,1.0,W,1.0,,105,pink,2023-11-07_13h42.36.166
45.35242841699801,['space'],1.0,W,1.0,[0.5228273749962682],105,pink,2023-11-07_13h42.36.166
47.443883583997376,None,1.0,B,1.0,,105,pink,2023-11-07_13h42.36.166
49.53444195899647,['space'],1.0,B,1.0,[0.5063363749941345],105,pink,2023-11-07_13h42.36.166
54.92962870899646,None,1.0,M,2.0,,105,pink,2023-11-07_13h42.36.166
57.011783624999225,None,1.0,O,2.0,,105,pink,2023-11-07_13h42.36.166
59.09801420899748,None,1.0,A,2.0,,105,pink,2023-11-07_13h42.36.166
61.19370929199795,None,1.0,Q,2.0,,105,pink,2023-11-07_13h42.36.166
63.28475541700027,None,1.0,Y,2.0,,105,pink,2023-11-07_13h42.36.166
65.36457579200214,None,1.0,H,2.0,,105,pink,2023-11-07_13h42.36.166
67.45559712500835,None,1.0,P,2.0,,105,pink,2023-11-07_13h42.36.166
69.53867133399763,None,1.0,W,2.0,,105,pink,2023-11-07_13h42.36.166
71.62030766700627,None,1.0,B,2.0,,105,pink,2023-11-07_13h42.36.166
73.71385779199773,None,1.0,M,2.0,,105,pink,2023-11-07_13h42.36.166
75.79031399999803,None,1.0,E,2.0,,105,pink,2023-11-07_13h42.36.166
77.8803754170076,None,1.0,A,2.0,,105,pink,2023-11-07_13h42.36.166
82.3791335420101,None,1.0,I,2.0,,105,pink,2023-11-07_13h42.36.166
84.46492629199929,None,1.0,R,2.0,,105,pink,2023-11-07_13h42.36.166
86.5627836670028,None,1.0,S,2.0,,105,pink,2023-11-07_13h42.36.166
88.65441816700331,None,1.0,P,2.0,,105,pink,2023-11-07_13h42.36.166
90.7372128749994,['space'],0.0,R,2.0,[1.0297924589976901],105,pink,2023-11-07_13h42.36.166
92.82679495900813,None,1.0,R,2.0,,105,pink,2023-11-07_13h42.36.166
94.91992666700388,None,1.0,L,2.0,,105,pink,2023-11-07_13h42.36.166
97.01381745901016,None,1.0,N,2.0,,105,pink,2023-11-07_13h42.36.166
99.09559345900198,None,1.0,I,2.0,,105,pink,2023-11-07_13h42.36.166
101.1875172919972,None,1.0,H,2.0,,105,pink,2023-11-07_13h42.36.166
103.27449054199678,None,1.0,F,2.0,,105,pink,2023-11-07_13h42.36.166
105.37143079200176,None,1.0,T,2.0,,105,pink,2023-11-07_13h42.36.166
115.63775395900302,None,1.0,F,2.0,,105,pink,2023-11-07_13h42.36.166
117.7228710000054,None,1.0,K,2.0,,105,pink,2023-11-07_13h42.36.166
119.80403275000572,None,1.0,M,2.0,,105,pink,2023-11-07_13h42.36.166
121.88520874999811,['space'],0.0,M,2.0,[1.1842239590041572],105,pink,2023-11-07_13h42.36.166
123.97718300000996,None,1.0,X,2.0,,105,pink,2023-11-07_13h42.36.166
126.06823450000957,None,1.0,X,2.0,,105,pink,2023-11-07_13h42.36.166
128.15353141700325,None,1.0,P,2.0,,105,pink,2023-11-07_13h42.36.166
130.24701525000273,None,1.0,I,2.0,,105,pink,2023-11-07_13h42.36.166
132.32876770899747,None,1.0,M,2.0,,105,pink,2023-11-07_13h42.36.166
134.4205710840033,None,1.0,Q,2.0,,105,pink,2023-11-07_13h42.36.166
136.50845975000993,None,1.0,C,2.0,,105,pink,2023-11-07_13h42.36.166
138.59586408401083,None,1.0,X,2.0,,105,pink,2023-11-07_13h42.36.166
142.55269283399684,None,1.0,E,1.0,,105,pink,2023-11-07_13h42.36.166
144.64149112500309,None,1.0,R,1.0,,105,pink,2023-11-07_13h42.36.166
146.72752149999724,None,1.0,U,1.0,,105,pink,2023-11-07_13h42.36.166
148.8182991250069,None,1.0,C,1.0,,105,pink,2023-11-07_13h42.36.166
150.89585520900437,None,1.0,K,1.0,,105,pink,2023-11-07_13h42.36.166
152.98593525000615,None,1.0,G,1.0,,105,pink,2023-11-07_13h42.36.166
155.0795134170039,None,1.0,V,1.0,,105,pink,2023-11-07_13h42.36.166
157.16870083400863,None,1.0,Z,1.0,,105,pink,2023-11-07_13h42.36.166
159.25419816700742,None,1.0,B,1.0,,105,pink,2023-11-07_13h42.36.166
161.34543895900424,None,1.0,X,1.0,,105,pink,2023-11-07_13h42.36.166
163.43874762499763,None,1.0,Q,1.0,,105,pink,2023-11-07_13h42.36.166
165.51643495900498,None,1.0,G,1.0,,105,pink,2023-11-07_13h42.36.166
168.89255879200937,None,1.0,Z,1.0,,105,pink,2023-11-07_13h42.36.166
170.98907662500278,None,1.0,O,1.0,,105,pink,2023-11-07_13h42.36.166
173.07237833400723,None,1.0,H,1.0,,105,pink,2023-11-07_13h42.36.166
175.1501413750084,None,1.0,N,1.0,,105,pink,2023-11-07_13h42.36.166
177.24568375000672,None,1.0,Q,1.0,,105,pink,2023-11-07_13h42.36.166
179.33807412500028,None,1.0,K,1.0,,105,pink,2023-11-07_13h42.36.166
181.4210823750036,None,1.0,W,1.0,,105,pink,2023-11-07_13h42.36.166
183.5081870840077,None,1.0,S,1.0,,105,pink,2023-11-07_13h42.36.166
185.59992262499873,None,1.0,P,1.0,,105,pink,2023-11-07_13h42.36.166
187.69299033400603,None,1.0,D,1.0,,105,pink,2023-11-07_13h42.36.166
189.77049391700712,None,1.0,U,1.0,,105,pink,2023-11-07_13h42.36.166
191.86413116700712,None,1.0,H,1.0,,105,pink,2023-11-07_13h42.36.166
195.0029328340024,None,1.0,P,1.0,,105,pink,2023-11-07_13h42.36.166
197.0868325420015,None,1.0,D,1.0,,105,pink,2023-11-07_13h42.36.166
199.17041125000105,None,1.0,K,1.0,,105,pink,2023-11-07_13h42.36.166
201.26420654200777,None,1.0,U,1.0,,105,pink,2023-11-07_13h42.36.166
203.3556762090011,None,1.0,P,1.0,,105,pink,2023-11-07_13h42.36.166
205.44185350000043,None,1.0,Q,1.0,,105,pink,2023-11-07_13h42.36.166
207.5373994999973,None,1.0,E,1.0,,105,pink,2023-11-07_13h42.36.166
209.63047845900292,None,1.0,I,1.0,,105,pink,2023-11-07_13h42.36.166
211.7126410839992,None,1.0,F,1.0,,105,pink,2023-11-07_13h42.36.166
213.80592158400395,None,1.0,Z,1.0,,105,pink,2023-11-07_13h42.36.166
215.88711866700032,None,1.0,U,1.0,,105,pink,2023-11-07_13h42.36.166
217.97107374999905,None,1.0,F,1.0,,105,pink,2023-11-07_13h42.36.166
230.407402249999,None,1.0,N,2.0,,105,pink,2023-11-07_13h42.36.166
232.4972951250093,None,1.0,O,2.0,,105,pink,2023-11-07_13h42.36.166
234.58445670900983,None,1.0,D,2.0,,105,pink,2023-11-07_13h42.36.166
236.67636075000337,None,1.0,F,2.0,,105,pink,2023-11-07_13h42.36.166
238.75806666699648,None,1.0,U,2.0,,105,pink,2023-11-07_13h42.36.166
240.84971350000703,None,1.0,Z,2.0,,105,pink,2023-11-07_13h42.36.166
242.9433175419981,None,1.0,C,2.0,,105,pink,2023-11-07_13h42.36.166
245.020938458998,None,1.0,A,2.0,,105,pink,2023-11-07_13h42.36.166
247.1043754170096,None,1.0,B,2.0,,105,pink,2023-11-07_13h42.36.166
249.19123345900152,None,1.0,Z,2.0,,105,pink,2023-11-07_13h42.36.166
251.28316000000632,None,1.0,R,2.0,,105,pink,2023-11-07_13h42.36.166
253.36898816699977,None,1.0,J,2.0,,105,pink,2023-11-07_13h42.36.166
4.881624249996094,None,1.0,W,2.0,,102,brown,2023-11-05_20h00.50.256
6.963628249999601,None,1.0,I,2.0,,102,brown,2023-11-05_20h00.50.256
9.056156374994316,None,1.0,K,2.0,,102,brown,2023-11-05_20h00.50.256
11.145091749996936,['space'],1.0,I,2.0,[0.8551972909990582],102,brown,2023-11-05_20h00.50.256
13.23796774999937,['space'],1.0,K,2.0,[1.087848583003506],102,brown,2023-11-05_20h00.50.256
15.315799749994769,None,1.0,V,2.0,,102,brown,2023-11-05_20h00.50.256
17.40384066599654,None,0.0,K,2.0,,102,brown,2023-11-05_20h00.50.256
19.500047290996008,None,1.0,R,2.0,,102,brown,2023-11-05_20h00.50.256
21.596568082997692,None,1.0,D,2.0,,102,brown,2023-11-05_20h00.50.256
23.671374165998714,['space'],1.0,R,2.0,[0.8978534170018975],102,brown,2023-11-05_20h00.50.256
25.754762332995597,None,1.0,M,2.0,,102,brown,2023-11-05_20h00.50.256
27.863303291000193,None,1.0,N,2.0,,102,brown,2023-11-05_20h00.50.256
31.623153374996036,None,1.0,M,1.0,,102,brown,2023-11-05_20h00.50.256
33.71687699999893,None,1.0,P,1.0,,102,brown,2023-11-05_20h00.50.256
35.799435832996096,None,1.0,K,1.0,,102,brown,2023-11-05_20h00.50.256
37.88510937499814,None,1.0,W,1.0,,102,brown,2023-11-05_20h00.50.256
39.97074187499675,None,1.0,K,1.0,,102,brown,2023-11-05_20h00.50.256
42.06603487499524,None,1.0,N,1.0,,102,brown,2023-11-05_20h00.50.256
44.1527144579959,None,1.0,Z,1.0,,102,brown,2023-11-05_20h00.50.256
46.24267099999997,None,1.0,S,1.0,,102,brown,2023-11-05_20h00.50.256
48.32658220799931,None,1.0,O,1.0,,102,brown,2023-11-05_20h00.50.256
50.407366915998864,None,1.0,P,1.0,,102,brown,2023-11-05_20h00.50.256
52.49475216599967,None,1.0,L,1.0,,102,brown,2023-11-05_20h00.50.256
54.57387037499575,['space'],1.0,L,1.0,[0.933541915997921],102,brown,2023-11-05_20h00.50.256
57.488389790996735,None,1.0,M,1.0,,102,brown,2023-11-05_20h00.50.256
59.56211116600025,None,1.0,N,1.0,,102,brown,2023-11-05_20h00.50.256
61.66750712499925,None,1.0,U,1.0,,102,brown,2023-11-05_20h00.50.256
63.73466099999496,None,1.0,X,1.0,,102,brown,2023-11-05_20h00.50.256
65.81602145799843,None,1.0,I,1.0,,102,brown,2023-11-05_20h00.50.256
67.90300399999978,None,1.0,C,1.0,,102,brown,2023-11-05_20h00.50.256
69.98599499999546,None,1.0,Y,1.0,,102,brown,2023-11-05_20h00.50.256
72.08474720799859,None,1.0,Q,1.0,,102,brown,2023-11-05_20h00.50.256
74.1755439999979,None,1.0,W,1.0,,102,brown,2023-11-05_20h00.50.256
76.2588635409993,None,1.0,O,1.0,,102,brown,2023-11-05_20h00.50.256
78.34189699999843,None,1.0,X,1.0,,102,brown,2023-11-05_20h00.50.256
80.42718037499435,None,1.0,H,1.0,,102,brown,2023-11-05_20h00.50.256
83.78154591599741,None,1.0,I,1.0,,102,brown,2023-11-05_20h00.50.256
85.86366770799941,None,1.0,H,1.0,,102,brown,2023-11-05_20h00.50.256
87.9590109579949,None,1.0,R,1.0,,102,brown,2023-11-05_20h00.50.256
90.04244612500042,None,1.0,E,1.0,,102,brown,2023-11-05_20h00.50.256
92.12456137499976,None,1.0,V,1.0,,102,brown,2023-11-05_20h00.50.256
94.2161024159941,None,1.0,O,1.0,,102,brown,2023-11-05_20h00.50.256
96.29946995800128,None,1.0,D,1.0,,102,brown,2023-11-05_20h00.50.256
98.38837854099984,None,1.0,B,1.0,,102,brown,2023-11-05_20h00.50.256
100.48389479099568,['space'],1.0,B,1.0,[0.6864280840018182],102,brown,2023-11-05_20h00.50.256
102.56629170799717,None,1.0,S,1.0,,102,brown,2023-11-05_20h00.50.256
104.65759708299449,None,1.0,E,1.0,,102,brown,2023-11-05_20h00.50.256
106.75360424999964,None,1.0,Q,1.0,,102,brown,2023-11-05_20h00.50.256
110.6370512499998,None,1.0,Q,2.0,,102,brown,2023-11-05_20h00.50.256
112.72258224999678,None,1.0,T,2.0,,102,brown,2023-11-05_20h00.50.256
114.80366966599831,None,1.0,U,2.0,,102,brown,2023-11-05_20h00.50.256
116.89033349999954,None,1.0,J,2.0,,102,brown,2023-11-05_20h00.50.256
118.978761665996,None,1.0,P,2.0,,102,brown,2023-11-05_20h00.50.256
121.07034829099575,None,1.0,T,2.0,,102,brown,2023-11-05_20h00.50.256
123.15625349999756,None,1.0,V,2.0,,102,brown,2023-11-05_20h00.50.256
125.24654616599582,None,1.0,Z,2.0,,102,brown,2023-11-05_20h00.50.256
127.34032883300095,None,1.0,G,2.0,,102,brown,2023-11-05_20h00.50.256
129.4203556249995,None,1.0,U,2.0,,102,brown,2023-11-05_20h00.50.256
131.50810099999944,['space'],1.0,G,2.0,[0.5552201660029823],102,brown,2023-11-05_20h00.50.256
133.59645587499836,['space'],1.0,U,2.0,[0.908198999997694],102,brown,2023-11-05_20h00.50.256
136.4019766249985,None,1.0,X,1.0,,102,brown,2023-11-05_20h00.50.256
138.47504212499916,None,1.0,H,1.0,,102,brown,2023-11-05_20h00.50.256
140.5716842499969,None,1.0,J,1.0,,102,brown,2023-11-05_20h00.50.256
142.65437695799483,None,1.0,P,1.0,,102,brown,2023-11-05_20h00.50.256
144.74641529099608,None,1.0,I,1.0,,102,brown,2023-11-05_20h00.50.256
146.82669687499583,['space'],1.0,I,1.0,[0.792929750001349],102,brown,2023-11-05_20h00.50.256
148.92038591599703,None,1.0,J,1.0,,102,brown,2023-11-05_20h00.50.256
151.01462912499846,None,1.0,A,1.0,,102,brown,2023-11-05_20h00.50.256
153.09744733299885,None,1.0,F,1.0,,102,brown,2023-11-05_20h00.50.256
155.17829058299685,None,1.0,O,1.0,,102,brown,2023-11-05_20h00.50.256
157.26572533299623,None,1.0,N,1.0,,102,brown,2023-11-05_20h00.50.256
159.3497972499972,None,1.0,B,1.0,,102,brown,2023-11-05_20h00.50.256
162.3613407909943,None,1.0,C,2.0,,102,brown,2023-11-05_20h00.50.256
164.4503842080012,None,1.0,M,2.0,,102,brown,2023-11-05_20h00.50.256
166.53722366599686,None,1.0,L,2.0,,102,brown,2023-11-05_20h00.50.256
168.62045558299724,None,1.0,V,2.0,,102,brown,2023-11-05_20h00.50.256
170.7132590830006,None,1.0,X,2.0,,102,brown,2023-11-05_20h00.50.256
172.79586933300016,None,1.0,E,2.0,,102,brown,2023-11-05_20h00.50.256
174.8825893329995,None,1.0,Y,2.0,,102,brown,2023-11-05_20h00.50.256
176.96655991599982,None,1.0,N,2.0,,102,brown,2023-11-05_20h00.50.256
179.05429387500044,None,1.0,D,2.0,,102,brown,2023-11-05_20h00.50.256
181.14495308299956,None,1.0,X,2.0,,102,brown,2023-11-05_20h00.50.256
183.2370882499963,None,1.0,C,2.0,,102,brown,2023-11-05_20h00.50.256
185.33002337499784,None,1.0,D,2.0,,102,brown,2023-11-05_20h00.50.256
189.87124308299823,None,1.0,F,2.0,,102,brown,2023-11-05_20h00.50.256
191.95429979099572,None,1.0,O,2.0,,102,brown,2023-11-05_20h00.50.256
194.0466077079982,None,1.0,X,2.0,,102,brown,2023-11-05_20h00.50.256
196.13004570799967,None,1.0,N,2.0,,102,brown,2023-11-05_20h00.50.256
198.21222633299476,None,1.0,E,2.0,,102,brown,2023-11-05_20h00.50.256
200.3046202080004,None,1.0,C,2.0,,102,brown,2023-11-05_20h00.50.256
202.3872209580004,None,1.0,O,2.0,,102,brown,2023-11-05_20h00.50.256
204.47999116600113,None,1.0,M,2.0,,102,brown,2023-11-05_20h00.50.256
206.5580241659991,None,1.0,E,2.0,,102,brown,2023-11-05_20h00.50.256
208.6415914579993,None,1.0,K,2.0,,102,brown,2023-11-05_20h00.50.256
210.73875741599477,None,1.0,P,2.0,,102,brown,2023-11-05_20h00.50.256
212.8288981250007,None,0.0,K,2.0,,102,brown,2023-11-05_20h00.50.256
0.9012307909943048,None,1.0,G,2.0,,102,silence,2023-11-05_20h05.06.573
2.978721665997,None,1.0,K,2.0,,102,silence,2023-11-05_20h05.06.573
5.060515416000271,None,0.0,G,2.0,,102,silence,2023-11-05_20h05.06.573
7.1530689999999595,"['space', 'space']",0.0,K,2.0,"[0.17130833299597725, 1.4281160419996013]",102,silence,2023-11-05_20h05.06.573
9.24566266599868,None,1.0,R,2.0,,102,silence,2023-11-05_20h05.06.573
11.330259374997697,None,1.0,R,2.0,,102,silence,2023-11-05_20h05.06.573
13.422861166000075,None,1.0,D,2.0,,102,silence,2023-11-05_20h05.06.573
15.513451124999849,None,1.0,Q,2.0,,102,silence,2023-11-05_20h05.06.573
17.600904540995543,None,1.0,S,2.0,,102,silence,2023-11-05_20h05.06.573
19.68400437499804,None,1.0,W,2.0,,102,silence,2023-11-05_20h05.06.573
21.77142633299809,None,1.0,A,2.0,,102,silence,2023-11-05_20h05.06.573
23.860631374998775,['space'],1.0,W,2.0,[0.5718832079946878],102,silence,2023-11-05_20h05.06.573
26.63936220799951,None,1.0,A,1.0,,102,silence,2023-11-05_20h05.06.573
28.72082799999771,None,1.0,P,1.0,,102,silence,2023-11-05_20h05.06.573
30.80298508299893,None,1.0,L,1.0,,102,silence,2023-11-05_20h05.06.573
32.88864808299695,None,1.0,X,1.0,,102,silence,2023-11-05_20h05.06.573
34.97221100000024,None,1.0,Y,1.0,,102,silence,2023-11-05_20h05.06.573
37.06020779100072,None,1.0,L,1.0,,102,silence,2023-11-05_20h05.06.573
39.15827300000092,None,1.0,E,1.0,,102,silence,2023-11-05_20h05.06.573
41.24520408299577,None,1.0,I,1.0,,102,silence,2023-11-05_20h05.06.573
43.33551912500115,None,1.0,R,1.0,,102,silence,2023-11-05_20h05.06.573
45.42818158299633,None,1.0,D,1.0,,102,silence,2023-11-05_20h05.06.573
47.512749665998854,None,1.0,Z,1.0,,102,silence,2023-11-05_20h05.06.573
49.59925316600129,['space'],1.0,Z,1.0,[0.6479796249986975],102,silence,2023-11-05_20h05.06.573
52.23157625000022,None,1.0,Z,1.0,,102,silence,2023-11-05_20h05.06.573
54.32287954099593,None,1.0,Y,1.0,,102,silence,2023-11-05_20h05.06.573
56.408884083000885,None,1.0,M,1.0,,102,silence,2023-11-05_20h05.06.573
58.49253895799484,None,1.0,A,1.0,,102,silence,2023-11-05_20h05.06.573
60.58955687499838,None,1.0,L,1.0,,102,silence,2023-11-05_20h05.06.573
62.68234970799677,None,1.0,M,1.0,,102,silence,2023-11-05_20h05.06.573
64.76466295799764,None,1.0,E,1.0,,102,silence,2023-11-05_20h05.06.573
66.85624916599772,None,1.0,I,1.0,,102,silence,2023-11-05_20h05.06.573
68.9426069580004,None,1.0,C,1.0,,102,silence,2023-11-05_20h05.06.573
71.03232870799548,None,1.0,E,1.0,,102,silence,2023-11-05_20h05.06.573
73.11452391599596,None,1.0,M,1.0,,102,silence,2023-11-05_20h05.06.573
75.1980475829987,None,1.0,C,1.0,,102,silence,2023-11-05_20h05.06.573
77.97237208300066,None,1.0,G,1.0,,102,silence,2023-11-05_20h05.06.573
80.05596170799981,None,1.0,N,1.0,,102,silence,2023-11-05_20h05.06.573
82.1401439159963,None,1.0,E,1.0,,102,silence,2023-11-05_20h05.06.573
84.23250116599957,None,1.0,L,1.0,,102,silence,2023-11-05_20h05.06.573
86.31421170799877,None,1.0,N,1.0,,102,silence,2023-11-05_20h05.06.573
88.40193112500128,None,1.0,U,1.0,,102,silence,2023-11-05_20h05.06.573
90.49504687499577,None,1.0,W,1.0,,102,silence,2023-11-05_20h05.06.573
92.57897616599804,None,1.0,J,1.0,,102,silence,2023-11-05_20h05.06.573
94.67444462500134,None,0.0,J,1.0,,102,silence,2023-11-05_20h05.06.573
96.76079495799786,None,1.0,H,1.0,,102,silence,2023-11-05_20h05.06.573
98.8483440409982,None,1.0,A,1.0,,102,silence,2023-11-05_20h05.06.573
100.93212379099714,None,1.0,P,1.0,,102,silence,2023-11-05_20h05.06.573
104.22301124999647,None,1.0,P,2.0,,102,silence,2023-11-05_20h05.06.573
106.31587970799592,None,1.0,X,2.0,,102,silence,2023-11-05_20h05.06.573
108.4062874999945,None,1.0,G,2.0,,102,silence,2023-11-05_20h05.06.573
110.50027879099798,None,1.0,F,2.0,,102,silence,2023-11-05_20h05.06.573
112.59026141600044,None,1.0,Q,2.0,,102,silence,2023-11-05_20h05.06.573
114.67296329099918,None,1.0,S,2.0,,102,silence,2023-11-05_20h05.06.573
116.76571970799704,None,1.0,S,2.0,,102,silence,2023-11-05_20h05.06.573
118.84255737499916,None,1.0,V,2.0,,102,silence,2023-11-05_20h05.06.573
120.92601566599478,None,1.0,T,2.0,,102,silence,2023-11-05_20h05.06.573
123.0147133329956,None,1.0,N,2.0,,102,silence,2023-11-05_20h05.06.573
125.1063517500006,None,1.0,D,2.0,,102,silence,2023-11-05_20h05.06.573
127.18976683299844,None,1.0,F,2.0,,102,silence,2023-11-05_20h05.06.573
129.9381017909982,None,1.0,P,1.0,,102,silence,2023-11-05_20h05.06.573
132.02438599999732,['space'],1.0,P,1.0,[0.5337119999967399],102,silence,2023-11-05_20h05.06.573
134.10733195799548,None,1.0,D,1.0,,102,silence,2023-11-05_20h05.06.573
136.19918241599953,None,1.0,U,1.0,,102,silence,2023-11-05_20h05.06.573
138.2817192079965,None,1.0,F,1.0,,102,silence,2023-11-05_20h05.06.573
140.37414129099488,None,1.0,X,1.0,,102,silence,2023-11-05_20h05.06.573
142.4746363749946,None,1.0,O,1.0,,102,silence,2023-11-05_20h05.06.573
144.53971920799813,None,1.0,Y,1.0,,102,silence,2023-11-05_20h05.06.573
146.62303745799727,None,1.0,X,1.0,,102,silence,2023-11-05_20h05.06.573
148.716076040997,None,1.0,O,1.0,,102,silence,2023-11-05_20h05.06.573
150.79864604099566,None,1.0,P,1.0,,102,silence,2023-11-05_20h05.06.573
152.89048458299658,None,1.0,Q,1.0,,102,silence,2023-11-05_20h05.06.573
155.69314683300036,None,1.0,R,2.0,,102,silence,2023-11-05_20h05.06.573
157.77435158300068,None,1.0,R,2.0,,102,silence,2023-11-05_20h05.06.573
159.8564569999944,None,1.0,Q,2.0,,102,silence,2023-11-05_20h05.06.573
161.9438278749949,None,1.0,W,2.0,,102,silence,2023-11-05_20h05.06.573
164.04289279099612,None,1.0,B,2.0,,102,silence,2023-11-05_20h05.06.573
166.13201129099616,None,1.0,Q,2.0,,102,silence,2023-11-05_20h05.06.573
168.2231002080007,None,1.0,I,2.0,,102,silence,2023-11-05_20h05.06.573
170.30645537500095,None,1.0,A,2.0,,102,silence,2023-11-05_20h05.06.573
172.38979100000142,None,1.0,N,2.0,,102,silence,2023-11-05_20h05.06.573
174.47312016599608,None,1.0,G,2.0,,102,silence,2023-11-05_20h05.06.573
176.55661370799498,None,1.0,I,2.0,,102,silence,2023-11-05_20h05.06.573
178.64923566599464,None,1.0,R,2.0,,102,silence,2023-11-05_20h05.06.573
181.46043174999795,None,1.0,T,2.0,,102,silence,2023-11-05_20h05.06.573
183.54921945800015,None,1.0,V,2.0,,102,silence,2023-11-05_20h05.06.573
185.6426006249967,None,1.0,V,2.0,,102,silence,2023-11-05_20h05.06.573
187.7229617909979,None,1.0,J,2.0,,102,silence,2023-11-05_20h05.06.573
189.81063154099684,None,1.0,O,2.0,,102,silence,2023-11-05_20h05.06.573
191.90338554099435,None,1.0,O,2.0,,102,silence,2023-11-05_20h05.06.573
193.98094962499457,None,1.0,F,2.0,,102,silence,2023-11-05_20h05.06.573
196.07737608299792,None,0.0,O,2.0,,102,silence,2023-11-05_20h05.06.573
198.16075037499832,None,0.0,F,2.0,,102,silence,2023-11-05_20h05.06.573
200.244008665999,None,1.0,W,2.0,,102,silence,2023-11-05_20h05.06.573
202.3279307499979,None,1.0,Y,2.0,,102,silence,2023-11-05_20h05.06.573
204.41315799999575,None,1.0,K,2.0,,102,silence,2023-11-05_20h05.06.573
1.1754045830020914,None,1.0,H,2.0,,102,pink,2023-11-05_20h09.36.606
3.251789958005247,None,1.0,J,2.0,,102,pink,2023-11-05_20h09.36.606
5.34866950000287,['space'],1.0,H,2.0,[0.6764465000014752],102,pink,2023-11-05_20h09.36.606
7.435452666002675,None,1.0,T,2.0,,102,pink,2023-11-05_20h09.36.606
9.526319625001634,None,1.0,O,2.0,,102,pink,2023-11-05_20h09.36.606
11.611189041002945,['space'],1.0,T,2.0,[1.4401218749990221],102,pink,2023-11-05_20h09.36.606
13.69653516600374,None,1.0,B,2.0,,102,pink,2023-11-05_20h09.36.606
15.783917416003533,None,1.0,P,2.0,,102,pink,2023-11-05_20h09.36.606
17.86659312499978,['space'],0.0,P,2.0,[1.7918767079972895],102,pink,2023-11-05_20h09.36.606
19.952533499999845,None,1.0,I,2.0,,102,pink,2023-11-05_20h09.36.606
22.04847791600332,None,0.0,P,2.0,,102,pink,2023-11-05_20h09.36.606
24.141348290999304,None,1.0,J,2.0,,102,pink,2023-11-05_20h09.36.606
28.292638083003112,None,1.0,O,2.0,,102,pink,2023-11-05_20h09.36.606
30.37904737500503,None,1.0,A,2.0,,102,pink,2023-11-05_20h09.36.606
32.46375362500112,None,1.0,W,2.0,,102,pink,2023-11-05_20h09.36.606
34.54855679100001,None,0.0,A,2.0,,102,pink,2023-11-05_20h09.36.606
36.64231329100585,None,1.0,G,2.0,,102,pink,2023-11-05_20h09.36.606
38.72666866600048,None,1.0,Q,2.0,,102,pink,2023-11-05_20h09.36.606
40.82138287500129,None,1.0,Z,2.0,,102,pink,2023-11-05_20h09.36.606
42.90269575000275,None,1.0,B,2.0,,102,pink,2023-11-05_20h09.36.606
44.98880195800302,None,1.0,X,2.0,,102,pink,2023-11-05_20h09.36.606
47.078736416005995,['space'],1.0,B,2.0,[0.5596752080018632],102,pink,2023-11-05_20h09.36.606
49.16196150000178,None,1.0,J,2.0,,102,pink,2023-11-05_20h09.36.606
51.24802229100169,['space'],1.0,B,2.0,[0.6955072080017999],102,pink,2023-11-05_20h09.36.606
54.12560850000591,None,1.0,U,2.0,,102,pink,2023-11-05_20h09.36.606
56.205695875003585,None,1.0,B,2.0,,102,pink,2023-11-05_20h09.36.606
58.30304987500131,None,1.0,O,2.0,,102,pink,2023-11-05_20h09.36.606
60.39555970800575,None,1.0,P,2.0,,102,pink,2023-11-05_20h09.36.606
62.48612162500649,None,1.0,J,2.0,,102,pink,2023-11-05_20h09.36.606
64.57887591600593,None,1.0,U,2.0,,102,pink,2023-11-05_20h09.36.606
66.66072574999998,None,1.0,B,2.0,,102,pink,2023-11-05_20h09.36.606
68.75393687500036,None,1.0,I,2.0,,102,pink,2023-11-05_20h09.36.606
70.83608166600607,None,1.0,G,2.0,,102,pink,2023-11-05_20h09.36.606
72.92101654100406,None,1.0,E,2.0,,102,pink,2023-11-05_20h09.36.606
75.01230133300123,None,1.0,X,2.0,,102,pink,2023-11-05_20h09.36.606
77.09642158300267,None,1.0,L,2.0,,102,pink,2023-11-05_20h09.36.606
79.89652675000252,None,1.0,K,1.0,,102,pink,2023-11-05_20h09.36.606
81.99059687500267,None,1.0,D,1.0,,102,pink,2023-11-05_20h09.36.606
84.0798675410042,None,1.0,N,1.0,,102,pink,2023-11-05_20h09.36.606
86.1736793750024,None,1.0,Q,1.0,,102,pink,2023-11-05_20h09.36.606
88.2625532910024,None,1.0,C,1.0,,102,pink,2023-11-05_20h09.36.606
90.35322729100152,None,1.0,T,1.0,,102,pink,2023-11-05_20h09.36.606
92.44530574999952,None,1.0,D,1.0,,102,pink,2023-11-05_20h09.36.606
94.53613587500148,None,1.0,K,1.0,,102,pink,2023-11-05_20h09.36.606
96.62899437500164,None,1.0,B,1.0,,102,pink,2023-11-05_20h09.36.606
98.7194469580063,None,1.0,Z,1.0,,102,pink,2023-11-05_20h09.36.606
100.80276179100474,None,1.0,O,1.0,,102,pink,2023-11-05_20h09.36.606
102.88612279100198,None,1.0,X,1.0,,102,pink,2023-11-05_20h09.36.606
105.7632793330049,None,1.0,P,1.0,,102,pink,2023-11-05_20h09.36.606
107.85282016600104,None,1.0,T,1.0,,102,pink,2023-11-05_20h09.36.606
109.93613783299952,None,1.0,K,1.0,,102,pink,2023-11-05_20h09.36.606
112.02897533299983,None,1.0,W,1.0,,102,pink,2023-11-05_20h09.36.606
114.10695779100206,None,1.0,V,1.0,,102,pink,2023-11-05_20h09.36.606
116.20331958300083,None,1.0,N,1.0,,102,pink,2023-11-05_20h09.36.606
118.2866426660039,None,1.0,V,1.0,,102,pink,2023-11-05_20h09.36.606
120.36960170800012,None,1.0,E,1.0,,102,pink,2023-11-05_20h09.36.606
122.45421620800334,['space'],1.0,E,1.0,[0.6975051250046818],102,pink,2023-11-05_20h09.36.606
124.54569162500412,None,1.0,J,1.0,,102,pink,2023-11-05_20h09.36.606
126.6234925000026,None,1.0,Y,1.0,,102,pink,2023-11-05_20h09.36.606
128.71995874999993,None,1.0,V,1.0,,102,pink,2023-11-05_20h09.36.606
131.4237532910047,None,1.0,A,1.0,,102,pink,2023-11-05_20h09.36.606
133.5123592500022,None,1.0,H,1.0,,102,pink,2023-11-05_20h09.36.606
135.5957634580045,None,1.0,D,1.0,,102,pink,2023-11-05_20h09.36.606
137.67741816600028,None,1.0,N,1.0,,102,pink,2023-11-05_20h09.36.606
139.77489962500113,None,1.0,A,1.0,,102,pink,2023-11-05_20h09.36.606
141.8696585830039,None,1.0,R,1.0,,102,pink,2023-11-05_20h09.36.606
143.95704458300315,None,1.0,H,1.0,,102,pink,2023-11-05_20h09.36.606
146.04989337500592,None,1.0,L,1.0,,102,pink,2023-11-05_20h09.36.606
148.13431750000018,None,1.0,M,1.0,,102,pink,2023-11-05_20h09.36.606
150.22372516600444,None,1.0,T,1.0,,102,pink,2023-11-05_20h09.36.606
152.3070846660048,None,1.0,E,1.0,,102,pink,2023-11-05_20h09.36.606
154.39050500000303,None,1.0,G,1.0,,102,pink,2023-11-05_20h09.36.606
158.8919549160055,None,1.0,R,2.0,,102,pink,2023-11-05_20h09.36.606
160.9666406660035,None,1.0,Q,2.0,,102,pink,2023-11-05_20h09.36.606
163.04989454099996,None,1.0,Z,2.0,,102,pink,2023-11-05_20h09.36.606
165.13271366600384,None,1.0,C,2.0,,102,pink,2023-11-05_20h09.36.606
167.22580000000016,None,1.0,F,2.0,,102,pink,2023-11-05_20h09.36.606
169.30767458300397,None,1.0,S,2.0,,102,pink,2023-11-05_20h09.36.606
171.39042491600412,None,1.0,G,2.0,,102,pink,2023-11-05_20h09.36.606
173.48333287500282,None,1.0,P,2.0,,102,pink,2023-11-05_20h09.36.606
175.56520133300364,None,1.0,Z,2.0,,102,pink,2023-11-05_20h09.36.606
177.64886383300473,None,1.0,N,2.0,,102,pink,2023-11-05_20h09.36.606
179.73243954100326,None,1.0,H,2.0,,102,pink,2023-11-05_20h09.36.606
181.8193792500024,None,1.0,C,2.0,,102,pink,2023-11-05_20h09.36.606
184.62943795799947,None,1.0,F,1.0,,102,pink,2023-11-05_20h09.36.606
186.699474208006,None,1.0,C,1.0,,102,pink,2023-11-05_20h09.36.606
188.79050600000485,None,1.0,Q,1.0,,102,pink,2023-11-05_20h09.36.606
190.88333850000345,None,1.0,G,1.0,,102,pink,2023-11-05_20h09.36.606
192.96640625000143,None,1.0,A,1.0,,102,pink,2023-11-05_20h09.36.606
195.05742004100463,None,1.0,Y,1.0,,102,pink,2023-11-05_20h09.36.606
197.15002120800636,None,1.0,R,1.0,,102,pink,2023-11-05_20h09.36.606
199.2404598749999,None,1.0,H,1.0,,102,pink,2023-11-05_20h09.36.606
201.3332537910028,None,1.0,R,1.0,,102,pink,2023-11-05_20h09.36.606
203.41668783299977,None,1.0,L,1.0,,102,pink,2023-11-05_20h09.36.606
205.49868799999967,None,1.0,G,1.0,,102,pink,2023-11-05_20h09.36.606
207.5911880000058,None,1.0,L,1.0,,102,pink,2023-11-05_20h09.36.606
9.642381375000696,None,1.0,G,2.0,,104,silence,2023-11-07_13h28.37.388
11.733822833994054,None,1.0,H,2.0,,104,silence,2023-11-07_13h28.37.388
13.816158791989436,['space'],1.0,G,2.0,[0.5561440830060747],104,silence,2023-11-07_13h28.37.388
15.905149916987284,None,1.0,Y,2.0,,104,silence,2023-11-07_13h28.37.388
17.990298666991293,None,1.0,R,2.0,,104,silence,2023-11-07_13h28.37.388
20.083496708990424,None,1.0,G,2.0,,104,silence,2023-11-07_13h28.37.388
22.16156720899744,None,0.0,R,2.0,,104,silence,2023-11-07_13h28.37.388
24.25875479199749,None,1.0,F,2.0,,104,silence,2023-11-07_13h28.37.388
26.355711041993345,None,1.0,Q,2.0,,104,silence,2023-11-07_13h28.37.388
28.436625292000823,['space'],1.0,F,2.0,[0.4230216669966467],104,silence,2023-11-07_13h28.37.388
30.519891541989637,None,1.0,H,2.0,,104,silence,2023-11-07_13h28.37.388
32.61365487499279,None,1.0,N,2.0,,104,silence,2023-11-07_13h28.37.388
36.54743312500068,None,1.0,Y,2.0,,104,silence,2023-11-07_13h28.37.388
38.631559208995895,None,1.0,O,2.0,,104,silence,2023-11-07_13h28.37.388
40.71724016699591,None,1.0,A,2.0,,104,silence,2023-11-07_13h28.37.388
42.80421016699984,None,1.0,E,2.0,,104,silence,2023-11-07_13h28.37.388
44.90076520899311,None,1.0,P,2.0,,104,silence,2023-11-07_13h28.37.388
46.992862499988405,None,1.0,U,2.0,,104,silence,2023-11-07_13h28.37.388
49.08370241698867,None,0.0,P,2.0,,104,silence,2023-11-07_13h28.37.388
51.166252499999246,None,1.0,J,2.0,,104,silence,2023-11-07_13h28.37.388
53.25845420898986,None,1.0,R,2.0,,104,silence,2023-11-07_13h28.37.388
55.34212412498891,['space'],1.0,J,2.0,[0.5258413749979809],104,silence,2023-11-07_13h28.37.388
57.42505941700074,None,1.0,T,2.0,,104,silence,2023-11-07_13h28.37.388
59.50723124999786,None,1.0,P,2.0,,104,silence,2023-11-07_13h28.37.388
62.968175999994855,None,1.0,T,2.0,,104,silence,2023-11-07_13h28.37.388
65.04895766699337,None,1.0,E,2.0,,104,silence,2023-11-07_13h28.37.388
67.13879791699583,None,1.0,D,2.0,,104,silence,2023-11-07_13h28.37.388
69.23186883398739,['space'],1.0,E,2.0,[0.5863980830035871],104,silence,2023-11-07_13h28.37.388
71.31835129199317,None,1.0,J,2.0,,104,silence,2023-11-07_13h28.37.388
73.41526220898959,None,1.0,G,2.0,,104,silence,2023-11-07_13h28.37.388
75.49921316700056,None,1.0,T,2.0,,104,silence,2023-11-07_13h28.37.388
77.59188820898999,None,1.0,A,2.0,,104,silence,2023-11-07_13h28.37.388
79.68378133399528,None,1.0,M,2.0,,104,silence,2023-11-07_13h28.37.388
81.76517183399119,None,1.0,P,2.0,,104,silence,2023-11-07_13h28.37.388
83.85940395899524,None,1.0,S,2.0,,104,silence,2023-11-07_13h28.37.388
85.94035433398676,None,1.0,D,2.0,,104,silence,2023-11-07_13h28.37.388
89.20303991698893,None,1.0,W,1.0,,104,silence,2023-11-07_13h28.37.388
91.28847629200028,['space'],1.0,W,1.0,[0.49138249999668915],104,silence,2023-11-07_13h28.37.388
93.3780209999968,None,1.0,B,1.0,,104,silence,2023-11-07_13h28.37.388
95.46098295898992,None,1.0,E,1.0,,104,silence,2023-11-07_13h28.37.388
97.5481061249884,None,1.0,H,1.0,,104,silence,2023-11-07_13h28.37.388
99.63189270898874,None,1.0,Q,1.0,,104,silence,2023-11-07_13h28.37.388
101.7151992500003,None,1.0,T,1.0,,104,silence,2023-11-07_13h28.37.388
103.80300804199942,None,1.0,U,1.0,,104,silence,2023-11-07_13h28.37.388
105.88630716699116,None,1.0,D,1.0,,104,silence,2023-11-07_13h28.37.388
107.9784193749947,None,1.0,H,1.0,,104,silence,2023-11-07_13h28.37.388
110.06524762499612,None,1.0,D,1.0,,104,silence,2023-11-07_13h28.37.388
112.14884633399195,None,1.0,J,1.0,,104,silence,2023-11-07_13h28.37.388
116.50880749999487,None,1.0,R,1.0,,104,silence,2023-11-07_13h28.37.388
118.59757999998692,None,1.0,C,1.0,,104,silence,2023-11-07_13h28.37.388
120.67954566699336,None,1.0,I,1.0,,104,silence,2023-11-07_13h28.37.388
122.77112212499196,None,1.0,Q,1.0,,104,silence,2023-11-07_13h28.37.388
124.84918966698751,None,1.0,M,1.0,,104,silence,2023-11-07_13h28.37.388
126.93491937499492,None,1.0,K,1.0,,104,silence,2023-11-07_13h28.37.388
129.02006612499827,None,1.0,O,1.0,,104,silence,2023-11-07_13h28.37.388
131.10503541700018,None,1.0,Z,1.0,,104,silence,2023-11-07_13h28.37.388
133.1904790839908,None,1.0,S,1.0,,104,silence,2023-11-07_13h28.37.388
135.2805354999873,['space'],1.0,S,1.0,[0.568227832991397],104,silence,2023-11-07_13h28.37.388
137.36564758399618,None,1.0,C,1.0,,104,silence,2023-11-07_13h28.37.388
139.45897495899408,None,1.0,U,1.0,,104,silence,2023-11-07_13h28.37.388
142.9034242919879,None,1.0,N,2.0,,104,silence,2023-11-07_13h28.37.388
144.9989987500012,None,1.0,O,2.0,,104,silence,2023-11-07_13h28.37.388
147.08247549999214,None,1.0,I,2.0,,104,silence,2023-11-07_13h28.37.388
149.17531070898983,None,1.0,B,2.0,,104,silence,2023-11-07_13h28.37.388
151.2528239589883,None,1.0,E,2.0,,104,silence,2023-11-07_13h28.37.388
153.33931458399456,None,1.0,X,2.0,,104,silence,2023-11-07_13h28.37.388
155.42306733399164,None,1.0,V,2.0,,104,silence,2023-11-07_13h28.37.388
157.51705695899727,None,1.0,I,2.0,,104,silence,2023-11-07_13h28.37.388
159.599724374988,None,1.0,L,2.0,,104,silence,2023-11-07_13h28.37.388
161.69110070899478,None,1.0,U,2.0,,104,silence,2023-11-07_13h28.37.388
163.77372029199614,None,1.0,E,2.0,,104,silence,2023-11-07_13h28.37.388
165.86564074999478,None,1.0,X,2.0,,104,silence,2023-11-07_13h28.37.388
168.99336462499923,None,1.0,P,1.0,,104,silence,2023-11-07_13h28.37.388
171.0737844589894,None,1.0,M,1.0,,104,silence,2023-11-07_13h28.37.388
173.16725116698944,None,1.0,N,1.0,,104,silence,2023-11-07_13h28.37.388
175.24905104198842,None,1.0,Z,1.0,,104,silence,2023-11-07_13h28.37.388
177.3323343749944,None,1.0,Q,1.0,,104,silence,2023-11-07_13h28.37.388
179.4256622499961,None,1.0,A,1.0,,104,silence,2023-11-07_13h28.37.388
181.5077617919887,None,1.0,Z,1.0,,104,silence,2023-11-07_13h28.37.388
183.59354537499897,None,1.0,V,1.0,,104,silence,2023-11-07_13h28.37.388
185.67821849999015,None,1.0,N,1.0,,104,silence,2023-11-07_13h28.37.388
187.76172674998816,None,1.0,K,1.0,,104,silence,2023-11-07_13h28.37.388
189.8493213749898,None,1.0,H,1.0,,104,silence,2023-11-07_13h28.37.388
191.93972874998872,None,1.0,R,1.0,,104,silence,2023-11-07_13h28.37.388
194.72687329199107,None,1.0,X,1.0,,104,silence,2023-11-07_13h28.37.388
196.81616854199092,None,1.0,Z,1.0,,104,silence,2023-11-07_13h28.37.388
198.9073867499974,None,1.0,L,1.0,,104,silence,2023-11-07_13h28.37.388
200.99008112499723,None,1.0,V,1.0,,104,silence,2023-11-07_13h28.37.388
203.07435020898993,None,1.0,Y,1.0,,104,silence,2023-11-07_13h28.37.388
205.16148962499577,None,1.0,W,1.0,,104,silence,2023-11-07_13h28.37.388
207.2482238339871,None,1.0,Q,1.0,,104,silence,2023-11-07_13h28.37.388
209.33258245899924,None,1.0,M,1.0,,104,silence,2023-11-07_13h28.37.388
211.4160998339939,None,1.0,Z,1.0,,104,silence,2023-11-07_13h28.37.388
213.512971499993,None,1.0,T,1.0,,104,silence,2023-11-07_13h28.37.388
215.59487291699045,None,1.0,D,1.0,,104,silence,2023-11-07_13h28.37.388
217.68687666699407,None,1.0,U,1.0,,104,silence,2023-11-07_13h28.37.388
1.521312457996828,None,1.0,Z,2.0,,100,pink,2023-11-04_19h22.35.591
3.6050731249997625,None,1.0,N,2.0,,100,pink,2023-11-04_19h22.35.591
5.694283249998989,['space'],1.0,Z,2.0,[0.8325079999995069],100,pink,2023-11-04_19h22.35.591
7.794673666998278,None,1.0,A,2.0,,100,pink,2023-11-04_19h22.35.591
9.869703624994145,['space'],1.0,Z,2.0,[1.1844402920032735],100,pink,2023-11-04_19h22.35.591
11.951992249996692,['space'],1.0,A,2.0,[1.0015162500058068],100,pink,2023-11-04_19h22.35.591
14.04737404199841,None,1.0,C,2.0,,100,pink,2023-11-04_19h22.35.591
16.135668625000108,None,1.0,G,2.0,,100,pink,2023-11-04_19h22.35.591
18.218098999997892,['space'],1.0,C,2.0,[0.9441509580065031],100,pink,2023-11-04_19h22.35.591
20.30419366699789,None,1.0,B,2.0,,100,pink,2023-11-04_19h22.35.591
22.39329649999854,['space'],1.0,C,2.0,[0.9766299999973853],100,pink,2023-11-04_19h22.35.591
24.47662112499529,['space'],1.0,B,2.0,[0.7617366670019692],100,pink,2023-11-04_19h22.35.591
27.27377566699579,None,1.0,Y,1.0,,100,pink,2023-11-04_19h22.35.591
29.35361304199614,None,1.0,P,1.0,,100,pink,2023-11-04_19h22.35.591
31.44078762499703,None,1.0,L,1.0,,100,pink,2023-11-04_19h22.35.591
33.53618354199716,None,1.0,I,1.0,,100,pink,2023-11-04_19h22.35.591
35.62171070799377,None,1.0,H,1.0,,100,pink,2023-11-04_19h22.35.591
37.71226170799491,None,1.0,X,1.0,,100,pink,2023-11-04_19h22.35.591
39.801882916995964,None,1.0,W,1.0,,100,pink,2023-11-04_19h22.35.591
41.889206957996066,None,1.0,I,1.0,,100,pink,2023-11-04_19h22.35.591
43.972717666998506,None,1.0,L,1.0,,100,pink,2023-11-04_19h22.35.591
46.05976045799616,None,1.0,S,1.0,,100,pink,2023-11-04_19h22.35.591
48.143194416996266,None,1.0,Q,1.0,,100,pink,2023-11-04_19h22.35.591
50.226657457998954,None,1.0,S,1.0,,100,pink,2023-11-04_19h22.35.591
53.79353654199804,None,1.0,V,2.0,,100,pink,2023-11-04_19h22.35.591
55.881152416994155,None,1.0,G,2.0,,100,pink,2023-11-04_19h22.35.591
57.972491374996025,None,1.0,I,2.0,,100,pink,2023-11-04_19h22.35.591
60.05536524999479,None,1.0,Q,2.0,,100,pink,2023-11-04_19h22.35.591
62.14756312499958,None,1.0,G,2.0,,100,pink,2023-11-04_19h22.35.591
64.24068066699692,None,1.0,A,2.0,,100,pink,2023-11-04_19h22.35.591
66.3225014999989,None,1.0,P,2.0,,100,pink,2023-11-04_19h22.35.591
68.41262183299841,None,1.0,O,2.0,,100,pink,2023-11-04_19h22.35.591
70.49717404200055,None,1.0,R,2.0,,100,pink,2023-11-04_19h22.35.591
72.58757383299962,None,1.0,D,2.0,,100,pink,2023-11-04_19h22.35.591
74.66862095800025,None,1.0,Y,2.0,,100,pink,2023-11-04_19h22.35.591
76.75390737499401,None,1.0,J,2.0,,100,pink,2023-11-04_19h22.35.591
79.64229316699493,None,1.0,D,1.0,,100,pink,2023-11-04_19h22.35.591
81.7353907919969,None,1.0,S,1.0,,100,pink,2023-11-04_19h22.35.591
83.8268221670005,None,1.0,N,1.0,,100,pink,2023-11-04_19h22.35.591
85.91988920799486,None,1.0,Y,1.0,,100,pink,2023-11-04_19h22.35.591
88.0025074169971,None,1.0,B,1.0,,100,pink,2023-11-04_19h22.35.591
90.0948467499984,None,1.0,L,1.0,,100,pink,2023-11-04_19h22.35.591
92.1783876249974,None,1.0,F,1.0,,100,pink,2023-11-04_19h22.35.591
94.26843862499663,None,1.0,C,1.0,,100,pink,2023-11-04_19h22.35.591
96.36152299999958,None,1.0,I,1.0,,100,pink,2023-11-04_19h22.35.591
98.44426316699536,None,1.0,U,1.0,,100,pink,2023-11-04_19h22.35.591
100.526668874998,None,1.0,R,1.0,,100,pink,2023-11-04_19h22.35.591
102.60987937499884,None,1.0,W,1.0,,100,pink,2023-11-04_19h22.35.591
105.48971570799768,None,1.0,E,2.0,,100,pink,2023-11-04_19h22.35.591
107.57753670799866,None,1.0,B,2.0,,100,pink,2023-11-04_19h22.35.591
109.67011824999643,None,1.0,K,2.0,,100,pink,2023-11-04_19h22.35.591
111.7517591249998,None,1.0,Y,2.0,,100,pink,2023-11-04_19h22.35.591
113.84387358299864,None,1.0,V,2.0,,100,pink,2023-11-04_19h22.35.591
115.93653020799684,None,1.0,X,2.0,,100,pink,2023-11-04_19h22.35.591
118.01844054200046,None,1.0,A,2.0,,100,pink,2023-11-04_19h22.35.591
120.110344582994,None,1.0,Z,2.0,,100,pink,2023-11-04_19h22.35.591
122.1938072079938,None,1.0,F,2.0,,100,pink,2023-11-04_19h22.35.591
124.27686125000037,None,1.0,Q,2.0,,100,pink,2023-11-04_19h22.35.591
126.3606054999982,None,1.0,W,2.0,,100,pink,2023-11-04_19h22.35.591
128.45233341700077,None,1.0,U,2.0,,100,pink,2023-11-04_19h22.35.591
131.6084649580007,None,1.0,G,1.0,,100,pink,2023-11-04_19h22.35.591
133.68971141699876,None,1.0,J,1.0,,100,pink,2023-11-04_19h22.35.591
135.7734479169958,None,1.0,U,1.0,,100,pink,2023-11-04_19h22.35.591
137.85623945800037,None,1.0,W,1.0,,100,pink,2023-11-04_19h22.35.591
139.94410287500068,None,1.0,L,1.0,,100,pink,2023-11-04_19h22.35.591
142.03145708299417,None,1.0,G,1.0,,100,pink,2023-11-04_19h22.35.591
144.11878262499522,None,1.0,O,1.0,,100,pink,2023-11-04_19h22.35.591
146.21455745799904,None,1.0,R,1.0,,100,pink,2023-11-04_19h22.35.591
148.2978302919946,None,1.0,X,1.0,,100,pink,2023-11-04_19h22.35.591
150.39087908299553,None,1.0,P,1.0,,100,pink,2023-11-04_19h22.35.591
152.47691783299524,None,1.0,G,1.0,,100,pink,2023-11-04_19h22.35.591
154.58247833299538,None,1.0,T,1.0,,100,pink,2023-11-04_19h22.35.591
157.41783125000077,None,1.0,I,1.0,,100,pink,2023-11-04_19h22.35.591
159.50657841700013,None,1.0,W,1.0,,100,pink,2023-11-04_19h22.35.591
161.5974628749973,None,1.0,F,1.0,,100,pink,2023-11-04_19h22.35.591
163.6895654580003,None,1.0,B,1.0,,100,pink,2023-11-04_19h22.35.591
165.77278487500007,None,1.0,T,1.0,,100,pink,2023-11-04_19h22.35.591
167.86585633299546,None,1.0,W,1.0,,100,pink,2023-11-04_19h22.35.591
169.9479281249951,None,1.0,D,1.0,,100,pink,2023-11-04_19h22.35.591
172.04080574999534,None,1.0,S,1.0,,100,pink,2023-11-04_19h22.35.591
174.12235962499835,None,1.0,F,1.0,,100,pink,2023-11-04_19h22.35.591
176.2056423749964,None,1.0,J,1.0,,100,pink,2023-11-04_19h22.35.591
178.28941870799463,None,1.0,N,1.0,,100,pink,2023-11-04_19h22.35.591
180.3724788330001,None,1.0,T,1.0,,100,pink,2023-11-04_19h22.35.591
183.4687877079996,None,1.0,U,2.0,,100,pink,2023-11-04_19h22.35.591
185.55610958299803,None,1.0,K,2.0,,100,pink,2023-11-04_19h22.35.591
187.64913766699465,None,1.0,P,2.0,,100,pink,2023-11-04_19h22.35.591
189.7391417079998,None,1.0,S,2.0,,100,pink,2023-11-04_19h22.35.591
191.82331266699475,None,1.0,E,2.0,,100,pink,2023-11-04_19h22.35.591
193.91527379199397,None,1.0,X,2.0,,100,pink,2023-11-04_19h22.35.591
196.00076470799831,None,1.0,M,2.0,,100,pink,2023-11-04_19h22.35.591
198.08155916699616,None,1.0,Z,2.0,,100,pink,2023-11-04_19h22.35.591
200.17419604199677,None,1.0,O,2.0,,100,pink,2023-11-04_19h22.35.591
202.26446570799453,None,1.0,R,2.0,,100,pink,2023-11-04_19h22.35.591
204.3461263749996,['space'],0.0,R,2.0,[1.2394902919986635],100,pink,2023-11-04_19h22.35.591
206.4317277079972,None,1.0,D,2.0,,100,pink,2023-11-04_19h22.35.591
2.067110041010892,None,1.0,E,2.0,,104,pink,2023-11-07_13h18.35.466
4.15084441601357,None,1.0,R,2.0,,104,pink,2023-11-07_13h18.35.466
6.236196625002776,['space'],1.0,E,2.0,[0.5786148749903077],104,pink,2023-11-07_13h18.35.466
8.323818166012643,None,1.0,G,2.0,,104,pink,2023-11-07_13h18.35.466
10.412706666000304,None,1.0,Y,2.0,,104,pink,2023-11-07_13h18.35.466
12.4960755409993,None,1.0,F,2.0,,104,pink,2023-11-07_13h18.35.466
14.59047191600257,['space'],1.0,Y,2.0,[0.7516321250004694],104,pink,2023-11-07_13h18.35.466
16.681923791009467,None,1.0,C,2.0,,104,pink,2023-11-07_13h18.35.466
18.76542375001009,None,0.0,Y,2.0,,104,pink,2023-11-07_13h18.35.466
20.8518889160041,None,1.0,T,2.0,,104,pink,2023-11-07_13h18.35.466
22.93995937501313,['space'],1.0,Y,2.0,[0.5156312089966377],104,pink,2023-11-07_13h18.35.466
25.034885125001892,None,1.0,B,2.0,,104,pink,2023-11-07_13h18.35.466
28.128033790999325,None,1.0,P,1.0,,104,pink,2023-11-07_13h18.35.466
30.21533029100101,None,1.0,B,1.0,,104,pink,2023-11-07_13h18.35.466
32.308114333005506,None,1.0,T,1.0,,104,pink,2023-11-07_13h18.35.466
34.39303591600037,None,1.0,J,1.0,,104,pink,2023-11-07_13h18.35.466
36.48277550000057,None,1.0,A,1.0,,104,pink,2023-11-07_13h18.35.466
38.562635708003654,['space'],1.0,A,1.0,[0.5794701249978971],104,pink,2023-11-07_13h18.35.466
40.65179379101028,None,1.0,W,1.0,,104,pink,2023-11-07_13h18.35.466
42.74144529100158,None,1.0,Z,1.0,,104,pink,2023-11-07_13h18.35.466
44.82466608300456,None,1.0,Y,1.0,,104,pink,2023-11-07_13h18.35.466
46.911058458004845,None,1.0,N,1.0,,104,pink,2023-11-07_13h18.35.466
49.007057500013616,None,1.0,A,1.0,,104,pink,2023-11-07_13h18.35.466
51.09858091600472,None,1.0,W,1.0,,104,pink,2023-11-07_13h18.35.466
53.98463108300348,None,1.0,F,1.0,,104,pink,2023-11-07_13h18.35.466
56.069023125004605,None,1.0,H,1.0,,104,pink,2023-11-07_13h18.35.466
58.17493879100948,None,1.0,Q,1.0,,104,pink,2023-11-07_13h18.35.466
60.2397824159998,None,1.0,E,1.0,,104,pink,2023-11-07_13h18.35.466
62.33187091600848,None,1.0,H,1.0,,104,pink,2023-11-07_13h18.35.466
64.42665391600167,None,1.0,S,1.0,,104,pink,2023-11-07_13h18.35.466
66.5094820830127,None,1.0,O,1.0,,104,pink,2023-11-07_13h18.35.466
68.59849562500312,None,1.0,R,1.0,,104,pink,2023-11-07_13h18.35.466
70.68494091600587,None,1.0,D,1.0,,104,pink,2023-11-07_13h18.35.466
72.76930400000128,None,1.0,Z,1.0,,104,pink,2023-11-07_13h18.35.466
74.85615708300611,None,1.0,X,1.0,,104,pink,2023-11-07_13h18.35.466
76.94426545800525,None,1.0,R,1.0,,104,pink,2023-11-07_13h18.35.466
81.55974720801169,None,1.0,B,2.0,,104,pink,2023-11-07_13h18.35.466
83.64040129100613,None,1.0,R,2.0,,104,pink,2023-11-07_13h18.35.466
85.7390704999998,None,1.0,V,2.0,,104,pink,2023-11-07_13h18.35.466
87.81941858300706,None,1.0,H,2.0,,104,pink,2023-11-07_13h18.35.466
89.92909145800513,None,1.0,K,2.0,,104,pink,2023-11-07_13h18.35.466
91.9952999160014,None,1.0,B,2.0,,104,pink,2023-11-07_13h18.35.466
94.07764854100242,None,1.0,F,2.0,,104,pink,2023-11-07_13h18.35.466
96.17909558300744,None,1.0,M,2.0,,104,pink,2023-11-07_13h18.35.466
98.25418162500137,None,1.0,S,2.0,,104,pink,2023-11-07_13h18.35.466
100.33202354100648,None,1.0,Q,2.0,,104,pink,2023-11-07_13h18.35.466
102.42908462500782,None,1.0,I,2.0,,104,pink,2023-11-07_13h18.35.466
104.51108404100523,['space'],0.0,S,2.0,[0.7094598749972647],104,pink,2023-11-07_13h18.35.466
107.5202487080096,None,1.0,S,2.0,,104,pink,2023-11-07_13h18.35.466
109.61129820800852,None,1.0,C,2.0,,104,pink,2023-11-07_13h18.35.466
111.69431883300422,None,1.0,Q,2.0,,104,pink,2023-11-07_13h18.35.466
113.7757285000116,None,1.0,Q,2.0,,104,pink,2023-11-07_13h18.35.466
115.8649869159999,None,1.0,U,2.0,,104,pink,2023-11-07_13h18.35.466
117.94888345801157,None,1.0,F,2.0,,104,pink,2023-11-07_13h18.35.466
120.03334020799956,None,1.0,J,2.0,,104,pink,2023-11-07_13h18.35.466
122.128117958011,None,1.0,G,2.0,,104,pink,2023-11-07_13h18.35.466
124.2189542910055,None,1.0,P,2.0,,104,pink,2023-11-07_13h18.35.466
126.30211766601133,None,1.0,I,2.0,,104,pink,2023-11-07_13h18.35.466
128.38736120800604,None,1.0,V,2.0,,104,pink,2023-11-07_13h18.35.466
130.47812791600882,None,1.0,K,2.0,,104,pink,2023-11-07_13h18.35.466
133.5233970410045,None,1.0,D,1.0,,104,pink,2023-11-07_13h18.35.466
135.60725749999983,None,1.0,H,1.0,,104,pink,2023-11-07_13h18.35.466
137.69960391600034,None,1.0,B,1.0,,104,pink,2023-11-07_13h18.35.466
139.78251904100762,None,1.0,L,1.0,,104,pink,2023-11-07_13h18.35.466
141.86516375000065,None,1.0,G,1.0,,104,pink,2023-11-07_13h18.35.466
143.94828091601084,None,1.0,Y,1.0,,104,pink,2023-11-07_13h18.35.466
146.04023037500156,None,1.0,V,1.0,,104,pink,2023-11-07_13h18.35.466
148.12645670800703,None,1.0,D,1.0,,104,pink,2023-11-07_13h18.35.466
150.2101585410128,['space'],1.0,D,1.0,[0.6135174169903621],104,pink,2023-11-07_13h18.35.466
152.2990945410129,None,1.0,J,1.0,,104,pink,2023-11-07_13h18.35.466
154.39010079100262,None,1.0,M,1.0,,104,pink,2023-11-07_13h18.35.466
156.4738502500113,None,1.0,V,1.0,,104,pink,2023-11-07_13h18.35.466
159.16866470800596,None,1.0,B,1.0,,104,pink,2023-11-07_13h18.35.466
161.2516575410118,None,1.0,X,1.0,,104,pink,2023-11-07_13h18.35.466
163.33645741600776,None,1.0,O,1.0,,104,pink,2023-11-07_13h18.35.466
165.43245983301313,None,1.0,Y,1.0,,104,pink,2023-11-07_13h18.35.466
167.52371983299963,None,1.0,U,1.0,,104,pink,2023-11-07_13h18.35.466
169.61676545800583,None,1.0,F,1.0,,104,pink,2023-11-07_13h18.35.466
171.69915220800613,None,1.0,Z,1.0,,104,pink,2023-11-07_13h18.35.466
173.7866877910128,None,1.0,D,1.0,,104,pink,2023-11-07_13h18.35.466
175.87409766600467,None,1.0,M,1.0,,104,pink,2023-11-07_13h18.35.466
177.9667132080067,None,1.0,N,1.0,,104,pink,2023-11-07_13h18.35.466
180.0490587910026,None,1.0,L,1.0,,104,pink,2023-11-07_13h18.35.466
182.14184291601123,None,1.0,K,1.0,,104,pink,2023-11-07_13h18.35.466
184.91029691600124,None,1.0,W,2.0,,104,pink,2023-11-07_13h18.35.466
186.99928095799987,None,1.0,O,2.0,,104,pink,2023-11-07_13h18.35.466
189.08212687500057,None,1.0,G,2.0,,104,pink,2023-11-07_13h18.35.466
191.17836758300837,None,1.0,X,2.0,,104,pink,2023-11-07_13h18.35.466
193.26159945801191,['space'],1.0,G,2.0,[0.5527627910050796],104,pink,2023-11-07_13h18.35.466
195.354496208005,None,1.0,Q,2.0,,104,pink,2023-11-07_13h18.35.466
197.43272620800417,None,1.0,U,2.0,,104,pink,2023-11-07_13h18.35.466
199.51962987500883,None,1.0,K,2.0,,104,pink,2023-11-07_13h18.35.466
201.60262295800203,None,1.0,E,2.0,,104,pink,2023-11-07_13h18.35.466
203.68639404101123,None,1.0,F,2.0,,104,pink,2023-11-07_13h18.35.466
205.77010762500868,None,0.0,E,2.0,,104,pink,2023-11-07_13h18.35.466
207.8526994999993,None,1.0,Z,2.0,,104,pink,2023-11-07_13h18.35.466
2.595021708999411,None,1.0,N,1.0,,101,silence,2023-11-04_19h41.16.234
4.677165666995279,None,1.0,U,1.0,,101,silence,2023-11-04_19h41.16.234
6.759754833998159,['space'],1.0,U,1.0,[0.4750869169947691],101,silence,2023-11-04_19h41.16.234
8.84842816699529,None,1.0,Z,1.0,,101,silence,2023-11-04_19h41.16.234
10.940154666997842,None,1.0,B,1.0,,101,silence,2023-11-04_19h41.16.234
13.037368999997852,None,1.0,E,1.0,,101,silence,2023-11-04_19h41.16.234
15.12643287499668,None,1.0,C,1.0,,101,silence,2023-11-04_19h41.16.234
17.221141834001173,['space'],1.0,C,1.0,[0.5174031659989851],101,silence,2023-11-04_19h41.16.234
19.30447858399566,None,1.0,E,1.0,,101,silence,2023-11-04_19h41.16.234
21.38955470899964,None,1.0,V,1.0,,101,silence,2023-11-04_19h41.16.234
23.49615074999747,None,1.0,A,1.0,,101,silence,2023-11-04_19h41.16.234
25.56558991700149,None,1.0,B,1.0,,101,silence,2023-11-04_19h41.16.234
36.70967483399727,None,1.0,D,2.0,,101,silence,2023-11-04_19h41.16.234
38.79292187499959,None,1.0,J,2.0,,101,silence,2023-11-04_19h41.16.234
40.87830441699771,None,1.0,G,2.0,,101,silence,2023-11-04_19h41.16.234
42.96136999999726,None,1.0,A,2.0,,101,silence,2023-11-04_19h41.16.234
45.04804858400166,None,1.0,S,2.0,,101,silence,2023-11-04_19h41.16.234
47.13998241700028,None,1.0,H,2.0,,101,silence,2023-11-04_19h41.16.234
49.22961504200066,None,1.0,E,2.0,,101,silence,2023-11-04_19h41.16.234
51.30738737499632,['space'],1.0,H,2.0,[0.6004100830032257],101,silence,2023-11-04_19h41.16.234
53.39119816699531,None,1.0,D,2.0,,101,silence,2023-11-04_19h41.16.234
55.486460749998514,None,0.0,H,2.0,,101,silence,2023-11-04_19h41.16.234
57.57342266699561,None,1.0,T,2.0,,101,silence,2023-11-04_19h41.16.234
59.6630157499967,['space'],1.0,H,2.0,[0.5635944999958156],101,silence,2023-11-04_19h41.16.234
67.38999849999527,None,1.0,V,2.0,,101,silence,2023-11-04_19h41.16.234
69.47841766700003,None,1.0,H,2.0,,101,silence,2023-11-04_19h41.16.234
71.56559025000024,None,1.0,Q,2.0,,101,silence,2023-11-04_19h41.16.234
73.66296987499663,None,1.0,K,2.0,,101,silence,2023-11-04_19h41.16.234
75.744499542001,None,1.0,A,2.0,,101,silence,2023-11-04_19h41.16.234
77.83934141699865,None,1.0,M,2.0,,101,silence,2023-11-04_19h41.16.234
79.92311241699645,None,1.0,F,2.0,,101,silence,2023-11-04_19h41.16.234
82.00743095899816,None,1.0,W,2.0,,101,silence,2023-11-04_19h41.16.234
84.09495975000027,None,1.0,E,2.0,,101,silence,2023-11-04_19h41.16.234
86.17759070899774,None,1.0,K,2.0,,101,silence,2023-11-04_19h41.16.234
88.2701906250004,None,1.0,C,2.0,,101,silence,2023-11-04_19h41.16.234
90.35448299999553,None,1.0,P,2.0,,101,silence,2023-11-04_19h41.16.234
96.23156875000132,None,1.0,D,1.0,,101,silence,2023-11-04_19h41.16.234
98.3091989589957,['space'],1.0,D,1.0,[0.6159689159976551],101,silence,2023-11-04_19h41.16.234
100.39570612499664,None,1.0,H,1.0,,101,silence,2023-11-04_19h41.16.234
102.48643374999664,None,1.0,K,1.0,,101,silence,2023-11-04_19h41.16.234
104.5880718749977,None,1.0,O,1.0,,101,silence,2023-11-04_19h41.16.234
106.65340724999989,None,1.0,S,1.0,,101,silence,2023-11-04_19h41.16.234
108.74629316700155,None,1.0,M,1.0,,101,silence,2023-11-04_19h41.16.234
110.82913108399951,None,1.0,O,1.0,,101,silence,2023-11-04_19h41.16.234
112.91992658399975,None,1.0,Z,1.0,,101,silence,2023-11-04_19h41.16.234
115.01301004199922,None,1.0,T,1.0,,101,silence,2023-11-04_19h41.16.234
117.09627324999748,None,1.0,M,1.0,,101,silence,2023-11-04_19h41.16.234
119.17385483399994,None,1.0,R,1.0,,101,silence,2023-11-04_19h41.16.234
124.31494199999725,None,1.0,K,2.0,,101,silence,2023-11-04_19h41.16.234
126.395802250001,None,1.0,Z,2.0,,101,silence,2023-11-04_19h41.16.234
128.48750274999475,None,1.0,C,2.0,,101,silence,2023-11-04_19h41.16.234
130.57867529199575,None,1.0,B,2.0,,101,silence,2023-11-04_19h41.16.234
132.66197254199506,None,1.0,G,2.0,,101,silence,2023-11-04_19h41.16.234
134.74546412500058,None,1.0,N,2.0,,101,silence,2023-11-04_19h41.16.234
136.8380279999983,None,1.0,J,2.0,,101,silence,2023-11-04_19h41.16.234
138.9158204589985,None,1.0,S,2.0,,101,silence,2023-11-04_19h41.16.234
141.0034807089978,None,1.0,F,2.0,,101,silence,2023-11-04_19h41.16.234
143.08758020900132,None,1.0,U,2.0,,101,silence,2023-11-04_19h41.16.234
145.17390024999622,None,1.0,B,2.0,,101,silence,2023-11-04_19h41.16.234
147.2703118339996,None,1.0,R,2.0,,101,silence,2023-11-04_19h41.16.234
161.91897079200135,None,1.0,C,2.0,,101,silence,2023-11-04_19h41.16.234
164.00360424999965,None,1.0,N,2.0,,101,silence,2023-11-04_19h41.16.234
166.09496699999727,None,1.0,Q,2.0,,101,silence,2023-11-04_19h41.16.234
168.17831837500125,None,1.0,U,2.0,,101,silence,2023-11-04_19h41.16.234
170.2650661669977,None,1.0,T,2.0,,101,silence,2023-11-04_19h41.16.234
172.35381999999663,None,1.0,M,2.0,,101,silence,2023-11-04_19h41.16.234
174.44476745899738,None,1.0,J,2.0,,101,silence,2023-11-04_19h41.16.234
176.52854025000124,['space'],1.0,M,2.0,[0.6278834580007242],101,silence,2023-11-04_19h41.16.234
178.6122296670001,None,1.0,F,2.0,,101,silence,2023-11-04_19h41.16.234
180.69887716700032,None,1.0,Y,2.0,,101,silence,2023-11-04_19h41.16.234
182.78464283399808,None,1.0,A,2.0,,101,silence,2023-11-04_19h41.16.234
184.8704680419978,None,1.0,W,2.0,,101,silence,2023-11-04_19h41.16.234
189.89101929200115,None,1.0,A,1.0,,101,silence,2023-11-04_19h41.16.234
191.97861987500073,None,1.0,Q,1.0,,101,silence,2023-11-04_19h41.16.234
