trials_3.thisRepN,trials_3.thisTrialN,trials_3.thisN,trials_3.thisIndex,trials.thisRepN,trials.thisTrialN,trials.thisN,trials.thisIndex,thisRow.t,notes,key_resp_2.keys,key_resp_2.corr,letter.routineEndVal,nback.routineEndVal,type.routineEndVal,key_resp_2.rt,key_resp_2.duration,participant,session,date,expName,psychopyVersion,frameRate,expStart,
0,0,0,0,0,0,0,0,7.643392500000118,,None,1,A,,2,,,301,silence,2023-11-15_17h02.21.534,experiment,2023.2.2,59.97166938335392,2023-11-15 17h02.43.265710 +0100,
0,0,0,0,1,0,1,0,9.741773500000136,,None,1,T,,2,,,301,silence,2023-11-15_17h02.21.534,experiment,2023.2.2,59.97166938335392,2023-11-15 17h02.43.265710 +0100,
0,0,0,0,2,0,2,0,11.840027300000202,,['space'],1,A,A,2,[0.4824450999999499],[None],301,silence,2023-11-15_17h02.21.534,experiment,2023.2.2,59.97166938335392,2023-11-15 17h02.43.265710 +0100,
0,0,0,0,3,0,3,0,13.938222900000028,,None,1,W,T,2,,,301,silence,2023-11-15_17h02.21.534,experiment,2023.2.2,59.97166938335392,2023-11-15 17h02.43.265710 +0100,
0,0,0,0,4,0,4,0,16.03665070000011,,None,1,S,A,2,,,301,silence,2023-11-15_17h02.21.534,experiment,2023.2.2,59.97166938335392,2023-11-15 17h02.43.265710 +0100,
0,0,0,0,5,0,5,0,18.13475140000014,,['space'],1,W,W,2,[0.44359220000001187],[None],301,silence,2023-11-15_17h02.21.534,experiment,2023.2.2,59.97166938335392,2023-11-15 17h02.43.265710 +0100,
0,0,0,0,6,0,6,0,20.233041300000195,,None,1,H,S,2,,,301,silence,2023-11-15_17h02.21.534,experiment,2023.2.2,59.97166938335392,2023-11-15 17h02.43.265710 +0100,
0,0,0,0,7,0,7,0,22.331307600000173,,['space'],1,W,W,2,[0.45775460000004387],[None],301,silence,2023-11-15_17h02.21.534,experiment,2023.2.2,59.97166938335392,2023-11-15 17h02.43.265710 +0100,
0,0,0,0,8,0,8,0,24.429926600000044,,None,1,D,H,2,,,301,silence,2023-11-15_17h02.21.534,experiment,2023.2.2,59.97166938335392,2023-11-15 17h02.43.265710 +0100,
0,0,0,0,9,0,9,0,26.528105100000175,,None,1,G,W,2,,,301,silence,2023-11-15_17h02.21.534,experiment,2023.2.2,59.97166938335392,2023-11-15 17h02.43.265710 +0100,
0,0,0,0,10,0,10,0,28.626195499999994,,None,1,Z,D,2,,,301,silence,2023-11-15_17h02.21.534,experiment,2023.2.2,59.97166938335392,2023-11-15 17h02.43.265710 +0100,
0,0,0,0,11,0,11,0,30.724618500000133,,['space'],1,G,G,2,[0.5751040000000103],[None],301,silence,2023-11-15_17h02.21.534,experiment,2023.2.2,59.97166938335392,2023-11-15 17h02.43.265710 +0100,
0,0,0,0,,,,,,,,,,,,,,301,silence,2023-11-15_17h02.21.534,experiment,2023.2.2,59.97166938335392,2023-11-15 17h02.43.265710 +0100,
1,0,1,0,0,0,0,0,34.42147410000007,,None,1,Z,,1,,,301,silence,2023-11-15_17h02.21.534,experiment,2023.2.2,59.97166938335392,2023-11-15 17h02.43.265710 +0100,
1,0,1,0,1,0,1,0,36.51968170000009,,['space'],1,Z,Z,1,[0.46119009999983973],[None],301,silence,2023-11-15_17h02.21.534,experiment,2023.2.2,59.97166938335392,2023-11-15 17h02.43.265710 +0100,
1,0,1,0,2,0,2,0,38.61794860000009,,None,1,G,Z,1,,,301,silence,2023-11-15_17h02.21.534,experiment,2023.2.2,59.97166938335392,2023-11-15 17h02.43.265710 +0100,
1,0,1,0,3,0,3,0,40.71623629999999,,None,1,B,G,1,,,301,silence,2023-11-15_17h02.21.534,experiment,2023.2.2,59.97166938335392,2023-11-15 17h02.43.265710 +0100,
1,0,1,0,4,0,4,0,42.81459740000014,,None,1,S,B,1,,,301,silence,2023-11-15_17h02.21.534,experiment,2023.2.2,59.97166938335392,2023-11-15 17h02.43.265710 +0100,
1,0,1,0,5,0,5,0,44.912801100000024,,['space'],1,S,S,1,[0.6274889999999687],[None],301,silence,2023-11-15_17h02.21.534,experiment,2023.2.2,59.97166938335392,2023-11-15 17h02.43.265710 +0100,
1,0,1,0,6,0,6,0,47.0112388,,['space'],1,S,S,1,[0.41451229999984207],[None],301,silence,2023-11-15_17h02.21.534,experiment,2023.2.2,59.97166938335392,2023-11-15 17h02.43.265710 +0100,
1,0,1,0,7,0,7,0,49.10954720000018,,None,1,T,S,1,,,301,silence,2023-11-15_17h02.21.534,experiment,2023.2.2,59.97166938335392,2023-11-15 17h02.43.265710 +0100,
1,0,1,0,8,0,8,0,51.207706600000165,,['space'],1,T,T,1,[0.49029319999999643],[None],301,silence,2023-11-15_17h02.21.534,experiment,2023.2.2,59.97166938335392,2023-11-15 17h02.43.265710 +0100,
1,0,1,0,9,0,9,0,53.30617700000016,,None,1,V,T,1,,,301,silence,2023-11-15_17h02.21.534,experiment,2023.2.2,59.97166938335392,2023-11-15 17h02.43.265710 +0100,
1,0,1,0,10,0,10,0,55.40430420000007,,None,1,J,V,1,,,301,silence,2023-11-15_17h02.21.534,experiment,2023.2.2,59.97166938335392,2023-11-15 17h02.43.265710 +0100,
1,0,1,0,11,0,11,0,57.502544700000044,,['space'],1,J,J,1,[0.5343496000000414],[None],301,silence,2023-11-15_17h02.21.534,experiment,2023.2.2,59.97166938335392,2023-11-15 17h02.43.265710 +0100,
1,0,1,0,,,,,,,,,,,,,,301,silence,2023-11-15_17h02.21.534,experiment,2023.2.2,59.97166938335392,2023-11-15 17h02.43.265710 +0100,
2,0,2,0,0,0,0,0,62.1486275000002,,None,1,L,,1,,,301,silence,2023-11-15_17h02.21.534,experiment,2023.2.2,59.97166938335392,2023-11-15 17h02.43.265710 +0100,
2,0,2,0,1,0,1,0,64.2470638000002,,['space'],1,L,L,1,[0.501745400000118],[None],301,silence,2023-11-15_17h02.21.534,experiment,2023.2.2,59.97166938335392,2023-11-15 17h02.43.265710 +0100,
2,0,2,0,2,0,2,0,66.34514780000018,,None,1,R,L,1,,,301,silence,2023-11-15_17h02.21.534,experiment,2023.2.2,59.97166938335392,2023-11-15 17h02.43.265710 +0100,
2,0,2,0,3,0,3,0,68.44342280000001,,['space'],1,R,R,1,[0.4655164999999215],[None],301,silence,2023-11-15_17h02.21.534,experiment,2023.2.2,59.97166938335392,2023-11-15 17h02.43.265710 +0100,
2,0,2,0,4,0,4,0,70.54182650000007,,None,1,J,R,1,,,301,silence,2023-11-15_17h02.21.534,experiment,2023.2.2,59.97166938335392,2023-11-15 17h02.43.265710 +0100,
2,0,2,0,5,0,5,0,72.64014510000015,,['space'],1,J,J,1,[0.42774850000000697],[None],301,silence,2023-11-15_17h02.21.534,experiment,2023.2.2,59.97166938335392,2023-11-15 17h02.43.265710 +0100,
2,0,2,0,6,0,6,0,74.73844080000003,,None,1,Z,J,1,,,301,silence,2023-11-15_17h02.21.534,experiment,2023.2.2,59.97166938335392,2023-11-15 17h02.43.265710 +0100,
2,0,2,0,7,0,7,0,76.83693349999999,,None,1,R,Z,1,,,301,silence,2023-11-15_17h02.21.534,experiment,2023.2.2,59.97166938335392,2023-11-15 17h02.43.265710 +0100,
2,0,2,0,8,0,8,0,78.9351044,,['space'],1,R,R,1,[0.4770218000001023],[None],301,silence,2023-11-15_17h02.21.534,experiment,2023.2.2,59.97166938335392,2023-11-15 17h02.43.265710 +0100,
2,0,2,0,9,0,9,0,81.03310380000016,,None,1,H,R,1,,,301,silence,2023-11-15_17h02.21.534,experiment,2023.2.2,59.97166938335392,2023-11-15 17h02.43.265710 +0100,
2,0,2,0,10,0,10,0,83.13138290000006,,None,1,T,H,1,,,301,silence,2023-11-15_17h02.21.534,experiment,2023.2.2,59.97166938335392,2023-11-15 17h02.43.265710 +0100,
2,0,2,0,11,0,11,0,85.22995890000016,,None,1,M,T,1,,,301,silence,2023-11-15_17h02.21.534,experiment,2023.2.2,59.97166938335392,2023-11-15 17h02.43.265710 +0100,
2,0,2,0,,,,,,,,,,,,,,301,silence,2023-11-15_17h02.21.534,experiment,2023.2.2,59.97166938335392,2023-11-15 17h02.43.265710 +0100,
3,0,3,0,0,0,0,0,92.62346580000008,,None,1,M,,2,,,301,silence,2023-11-15_17h02.21.534,experiment,2023.2.2,59.97166938335392,2023-11-15 17h02.43.265710 +0100,
3,0,3,0,1,0,1,0,94.7219576,,None,1,L,,2,,,301,silence,2023-11-15_17h02.21.534,experiment,2023.2.2,59.97166938335392,2023-11-15 17h02.43.265710 +0100,
3,0,3,0,2,0,2,0,96.8200534,,None,1,W,M,2,,,301,silence,2023-11-15_17h02.21.534,experiment,2023.2.2,59.97166938335392,2023-11-15 17h02.43.265710 +0100,
3,0,3,0,3,0,3,0,98.91845150000017,,None,1,G,L,2,,,301,silence,2023-11-15_17h02.21.534,experiment,2023.2.2,59.97166938335392,2023-11-15 17h02.43.265710 +0100,
3,0,3,0,4,0,4,0,101.01662420000002,,['space'],1,W,W,2,[0.8593190000001414],[None],301,silence,2023-11-15_17h02.21.534,experiment,2023.2.2,59.97166938335392,2023-11-15 17h02.43.265710 +0100,
3,0,3,0,5,0,5,0,103.11486690000015,,None,1,J,G,2,,,301,silence,2023-11-15_17h02.21.534,experiment,2023.2.2,59.97166938335392,2023-11-15 17h02.43.265710 +0100,
3,0,3,0,6,0,6,0,105.21325150000007,,None,1,H,W,2,,,301,silence,2023-11-15_17h02.21.534,experiment,2023.2.2,59.97166938335392,2023-11-15 17h02.43.265710 +0100,
3,0,3,0,7,0,7,0,107.3115752000001,,None,1,Y,J,2,,,301,silence,2023-11-15_17h02.21.534,experiment,2023.2.2,59.97166938335392,2023-11-15 17h02.43.265710 +0100,
3,0,3,0,8,0,8,0,109.40968229999999,,['space'],1,H,H,2,[0.5341562999999496],[None],301,silence,2023-11-15_17h02.21.534,experiment,2023.2.2,59.97166938335392,2023-11-15 17h02.43.265710 +0100,
3,0,3,0,9,0,9,0,111.50801860000001,,None,1,E,Y,2,,,301,silence,2023-11-15_17h02.21.534,experiment,2023.2.2,59.97166938335392,2023-11-15 17h02.43.265710 +0100,
3,0,3,0,10,0,10,0,113.60640430000012,,None,1,B,H,2,,,301,silence,2023-11-15_17h02.21.534,experiment,2023.2.2,59.97166938335392,2023-11-15 17h02.43.265710 +0100,
3,0,3,0,11,0,11,0,115.70467819999999,,None,1,V,E,2,,,301,silence,2023-11-15_17h02.21.534,experiment,2023.2.2,59.97166938335392,2023-11-15 17h02.43.265710 +0100,
3,0,3,0,,,,,,,,,,,,,,301,silence,2023-11-15_17h02.21.534,experiment,2023.2.2,59.97166938335392,2023-11-15 17h02.43.265710 +0100,
4,0,4,0,0,0,0,0,120.43426950000003,,None,1,M,,2,,,301,silence,2023-11-15_17h02.21.534,experiment,2023.2.2,59.97166938335392,2023-11-15 17h02.43.265710 +0100,
4,0,4,0,1,0,1,0,122.5322986000001,,None,1,V,,2,,,301,silence,2023-11-15_17h02.21.534,experiment,2023.2.2,59.97166938335392,2023-11-15 17h02.43.265710 +0100,
4,0,4,0,2,0,2,0,124.63067840000008,,['space'],1,M,M,2,[0.5460746000001109],[None],301,silence,2023-11-15_17h02.21.534,experiment,2023.2.2,59.97166938335392,2023-11-15 17h02.43.265710 +0100,
4,0,4,0,3,0,3,0,126.72892360000014,,None,1,C,V,2,,,301,silence,2023-11-15_17h02.21.534,experiment,2023.2.2,59.97166938335392,2023-11-15 17h02.43.265710 +0100,
4,0,4,0,4,0,4,0,128.82713250000006,,None,1,R,M,2,,,301,silence,2023-11-15_17h02.21.534,experiment,2023.2.2,59.97166938335392,2023-11-15 17h02.43.265710 +0100,
4,0,4,0,5,0,5,0,130.92531930000018,,None,1,O,C,2,,,301,silence,2023-11-15_17h02.21.534,experiment,2023.2.2,59.97166938335392,2023-11-15 17h02.43.265710 +0100,
4,0,4,0,6,0,6,0,133.02364230000012,,['space'],1,R,R,2,[0.47939709999991464],[None],301,silence,2023-11-15_17h02.21.534,experiment,2023.2.2,59.97166938335392,2023-11-15 17h02.43.265710 +0100,
4,0,4,0,7,0,7,0,135.12206190000006,,['space'],1,O,O,2,[0.5383763999998337],[None],301,silence,2023-11-15_17h02.21.534,experiment,2023.2.2,59.97166938335392,2023-11-15 17h02.43.265710 +0100,
4,0,4,0,8,0,8,0,137.22024850000003,,None,1,N,R,2,,,301,silence,2023-11-15_17h02.21.534,experiment,2023.2.2,59.97166938335392,2023-11-15 17h02.43.265710 +0100,
4,0,4,0,9,0,9,0,139.31876890000012,,None,1,S,O,2,,,301,silence,2023-11-15_17h02.21.534,experiment,2023.2.2,59.97166938335392,2023-11-15 17h02.43.265710 +0100,
4,0,4,0,10,0,10,0,141.41689610000003,,['space'],1,N,N,2,[0.668614800000114],[None],301,silence,2023-11-15_17h02.21.534,experiment,2023.2.2,59.97166938335392,2023-11-15 17h02.43.265710 +0100,
4,0,4,0,11,0,11,0,143.51494190000017,,['space'],0,N,S,2,[0.7916353999999046],[None],301,silence,2023-11-15_17h02.21.534,experiment,2023.2.2,59.97166938335392,2023-11-15 17h02.43.265710 +0100,
4,0,4,0,,,,,,,,,,,,,,301,silence,2023-11-15_17h02.21.534,experiment,2023.2.2,59.97166938335392,2023-11-15 17h02.43.265710 +0100,
5,0,5,0,0,0,0,0,148.16122080000014,,None,1,M,,1,,,301,silence,2023-11-15_17h02.21.534,experiment,2023.2.2,59.97166938335392,2023-11-15 17h02.43.265710 +0100,
5,0,5,0,1,0,1,0,150.25952070000017,,['space'],1,M,M,1,[0.4677713999999469],[None],301,silence,2023-11-15_17h02.21.534,experiment,2023.2.2,59.97166938335392,2023-11-15 17h02.43.265710 +0100,
5,0,5,0,2,0,2,0,152.3578417000001,,None,1,B,M,1,,,301,silence,2023-11-15_17h02.21.534,experiment,2023.2.2,59.97166938335392,2023-11-15 17h02.43.265710 +0100,
5,0,5,0,3,0,3,0,154.45610740000006,,['space'],1,B,B,1,[0.43052810000017416],[None],301,silence,2023-11-15_17h02.21.534,experiment,2023.2.2,59.97166938335392,2023-11-15 17h02.43.265710 +0100,
5,0,5,0,4,0,4,0,156.5541618000002,,None,1,U,B,1,,,301,silence,2023-11-15_17h02.21.534,experiment,2023.2.2,59.97166938335392,2023-11-15 17h02.43.265710 +0100,
5,0,5,0,5,0,5,0,158.65255520000005,,None,1,T,U,1,,,301,silence,2023-11-15_17h02.21.534,experiment,2023.2.2,59.97166938335392,2023-11-15 17h02.43.265710 +0100,
5,0,5,0,6,0,6,0,160.75084470000002,,None,1,M,T,1,,,301,silence,2023-11-15_17h02.21.534,experiment,2023.2.2,59.97166938335392,2023-11-15 17h02.43.265710 +0100,
5,0,5,0,7,0,7,0,162.8491683000002,,None,1,N,M,1,,,301,silence,2023-11-15_17h02.21.534,experiment,2023.2.2,59.97166938335392,2023-11-15 17h02.43.265710 +0100,
5,0,5,0,8,0,8,0,164.94753290000017,,None,1,D,N,1,,,301,silence,2023-11-15_17h02.21.534,experiment,2023.2.2,59.97166938335392,2023-11-15 17h02.43.265710 +0100,
5,0,5,0,9,0,9,0,167.0458278000001,,None,1,X,D,1,,,301,silence,2023-11-15_17h02.21.534,experiment,2023.2.2,59.97166938335392,2023-11-15 17h02.43.265710 +0100,
5,0,5,0,10,0,10,0,169.1441139000001,,['space'],1,X,X,1,[0.5055612999999539],[None],301,silence,2023-11-15_17h02.21.534,experiment,2023.2.2,59.97166938335392,2023-11-15 17h02.43.265710 +0100,
5,0,5,0,11,0,11,0,171.2423828000001,,['space'],1,X,X,1,[0.5620042000000467],[None],301,silence,2023-11-15_17h02.21.534,experiment,2023.2.2,59.97166938335392,2023-11-15 17h02.43.265710 +0100,
5,0,5,0,,,,,,,,,,,,,,301,silence,2023-11-15_17h02.21.534,experiment,2023.2.2,59.97166938335392,2023-11-15 17h02.43.265710 +0100,
6,0,6,0,0,0,0,0,175.4555865000002,,None,1,I,,2,,,301,silence,2023-11-15_17h02.21.534,experiment,2023.2.2,59.97166938335392,2023-11-15 17h02.43.265710 +0100,
6,0,6,0,1,0,1,0,177.55396080000014,,None,1,K,,2,,,301,silence,2023-11-15_17h02.21.534,experiment,2023.2.2,59.97166938335392,2023-11-15 17h02.43.265710 +0100,
6,0,6,0,2,0,2,0,179.6520124000001,,['space'],1,I,I,2,[0.602045999999973],[None],301,silence,2023-11-15_17h02.21.534,experiment,2023.2.2,59.97166938335392,2023-11-15 17h02.43.265710 +0100,
6,0,6,0,3,0,3,0,181.75023710000005,,None,1,G,K,2,,,301,silence,2023-11-15_17h02.21.534,experiment,2023.2.2,59.97166938335392,2023-11-15 17h02.43.265710 +0100,
6,0,6,0,4,0,4,0,183.84850920000008,,['space'],1,I,I,2,[0.7847995000001902],[None],301,silence,2023-11-15_17h02.21.534,experiment,2023.2.2,59.97166938335392,2023-11-15 17h02.43.265710 +0100,
6,0,6,0,5,0,5,0,185.94705870000007,,None,1,D,G,2,,,301,silence,2023-11-15_17h02.21.534,experiment,2023.2.2,59.97166938335392,2023-11-15 17h02.43.265710 +0100,
6,0,6,0,6,0,6,0,188.04530190000014,,['space'],1,I,I,2,[0.6293353000000934],[None],301,silence,2023-11-15_17h02.21.534,experiment,2023.2.2,59.97166938335392,2023-11-15 17h02.43.265710 +0100,
6,0,6,0,7,0,7,0,190.14343310000004,,None,1,S,D,2,,,301,silence,2023-11-15_17h02.21.534,experiment,2023.2.2,59.97166938335392,2023-11-15 17h02.43.265710 +0100,
6,0,6,0,8,0,8,0,192.24147940000012,,None,1,P,I,2,,,301,silence,2023-11-15_17h02.21.534,experiment,2023.2.2,59.97166938335392,2023-11-15 17h02.43.265710 +0100,
6,0,6,0,9,0,9,0,194.34006850000014,,None,0,S,S,2,,,301,silence,2023-11-15_17h02.21.534,experiment,2023.2.2,59.97166938335392,2023-11-15 17h02.43.265710 +0100,
6,0,6,0,10,0,10,0,196.4381268000002,,['space'],1,P,P,2,[0.4738755000000765],[None],301,silence,2023-11-15_17h02.21.534,experiment,2023.2.2,59.97166938335392,2023-11-15 17h02.43.265710 +0100,
6,0,6,0,11,0,11,0,198.53660020000007,,['space'],1,S,S,2,[0.97101930000008],[None],301,silence,2023-11-15_17h02.21.534,experiment,2023.2.2,59.97166938335392,2023-11-15 17h02.43.265710 +0100,
6,0,6,0,,,,,,,,,,,,,,301,silence,2023-11-15_17h02.21.534,experiment,2023.2.2,59.97166938335392,2023-11-15 17h02.43.265710 +0100,
7,0,7,0,0,0,0,0,202.8494799,,None,1,B,,1,,,301,silence,2023-11-15_17h02.21.534,experiment,2023.2.2,59.97166938335392,2023-11-15 17h02.43.265710 +0100,
7,0,7,0,1,0,1,0,204.9479570000001,,None,1,I,B,1,,,301,silence,2023-11-15_17h02.21.534,experiment,2023.2.2,59.97166938335392,2023-11-15 17h02.43.265710 +0100,
7,0,7,0,2,0,2,0,207.0462434000001,,None,1,D,I,1,,,301,silence,2023-11-15_17h02.21.534,experiment,2023.2.2,59.97166938335392,2023-11-15 17h02.43.265710 +0100,
7,0,7,0,3,0,3,0,209.1444461000001,,['space'],1,D,D,1,[0.5960417999999663],[None],301,silence,2023-11-15_17h02.21.534,experiment,2023.2.2,59.97166938335392,2023-11-15 17h02.43.265710 +0100,
7,0,7,0,4,0,4,0,211.2428315000002,,None,1,V,D,1,,,301,silence,2023-11-15_17h02.21.534,experiment,2023.2.2,59.97166938335392,2023-11-15 17h02.43.265710 +0100,
7,0,7,0,5,0,5,0,213.3411019,,['space'],1,V,V,1,[0.45758569999998144],[None],301,silence,2023-11-15_17h02.21.534,experiment,2023.2.2,59.97166938335392,2023-11-15 17h02.43.265710 +0100,
7,0,7,0,6,0,6,0,215.439296,,['space'],1,V,V,1,[0.47782040000015513],[None],301,silence,2023-11-15_17h02.21.534,experiment,2023.2.2,59.97166938335392,2023-11-15 17h02.43.265710 +0100,
7,0,7,0,7,0,7,0,217.5378443000002,,None,1,Y,V,1,,,301,silence,2023-11-15_17h02.21.534,experiment,2023.2.2,59.97166938335392,2023-11-15 17h02.43.265710 +0100,
7,0,7,0,8,0,8,0,219.6357306,,['space'],1,Y,Y,1,[0.5680098000000271],[None],301,silence,2023-11-15_17h02.21.534,experiment,2023.2.2,59.97166938335392,2023-11-15 17h02.43.265710 +0100,
7,0,7,0,9,0,9,0,221.73428030000014,,['space'],1,Y,Y,1,[0.5941987000001063],[None],301,silence,2023-11-15_17h02.21.534,experiment,2023.2.2,59.97166938335392,2023-11-15 17h02.43.265710 +0100,
7,0,7,0,10,0,10,0,223.83247010000014,,['space'],1,Y,Y,1,[0.5657101000001603],[None],301,silence,2023-11-15_17h02.21.534,experiment,2023.2.2,59.97166938335392,2023-11-15 17h02.43.265710 +0100,
7,0,7,0,11,0,11,0,225.93063900000016,,None,1,K,Y,1,,,301,silence,2023-11-15_17h02.21.534,experiment,2023.2.2,59.97166938335392,2023-11-15 17h02.43.265710 +0100,
7,0,7,0,,,,,,,,,,,,,,301,silence,2023-11-15_17h02.21.534,experiment,2023.2.2,59.97166938335392,2023-11-15 17h02.43.265710 +0100,
