trials_3.thisRepN,trials_3.thisTrialN,trials_3.thisN,trials_3.thisIndex,trials.thisRepN,trials.thisTrialN,trials.thisN,trials.thisIndex,thisRow.t,notes,key_resp_2.keys,key_resp_2.corr,letter.routineEndVal,nback.routineEndVal,type.routineEndVal,key_resp_2.rt,key_resp_2.duration,participant,session,date,expName,psychopyVersion,frameRate,expStart,
0,0,0,0,0,0,0,0,14.702644899999996,,None,1,X,,2,,,301,pink,2023-11-15_16h57.58.156,experiment,2023.2.2,60.03810017840124,2023-11-15 16h58.10.435453 +0100,
0,0,0,0,1,0,1,0,16.79979419999995,,None,1,T,,2,,,301,pink,2023-11-15_16h57.58.156,experiment,2023.2.2,60.03810017840124,2023-11-15 16h58.10.435453 +0100,
0,0,0,0,2,0,2,0,18.89815759999999,,['space'],1,X,X,2,[0.5095421999999417],[None],301,pink,2023-11-15_16h57.58.156,experiment,2023.2.2,60.03810017840124,2023-11-15 16h58.10.435453 +0100,
0,0,0,0,3,0,3,0,20.996366500000022,,None,1,R,T,2,,,301,pink,2023-11-15_16h57.58.156,experiment,2023.2.2,60.03810017840124,2023-11-15 16h58.10.435453 +0100,
0,0,0,0,4,0,4,0,23.09461669999996,,['space'],1,X,X,2,[0.662567000000081],[None],301,pink,2023-11-15_16h57.58.156,experiment,2023.2.2,60.03810017840124,2023-11-15 16h58.10.435453 +0100,
0,0,0,0,5,0,5,0,25.192860699999983,,None,1,Z,R,2,,,301,pink,2023-11-15_16h57.58.156,experiment,2023.2.2,60.03810017840124,2023-11-15 16h58.10.435453 +0100,
0,0,0,0,6,0,6,0,27.290838099999974,,['space'],1,X,X,2,[0.6489503000000241],[None],301,pink,2023-11-15_16h57.58.156,experiment,2023.2.2,60.03810017840124,2023-11-15 16h58.10.435453 +0100,
0,0,0,0,7,0,7,0,29.389459200000033,,None,1,V,Z,2,,,301,pink,2023-11-15_16h57.58.156,experiment,2023.2.2,60.03810017840124,2023-11-15 16h58.10.435453 +0100,
0,0,0,0,8,0,8,0,31.487670200000025,,None,1,Z,X,2,,,301,pink,2023-11-15_16h57.58.156,experiment,2023.2.2,60.03810017840124,2023-11-15 16h58.10.435453 +0100,
0,0,0,0,9,0,9,0,33.586269300000026,,None,1,O,V,2,,,301,pink,2023-11-15_16h57.58.156,experiment,2023.2.2,60.03810017840124,2023-11-15 16h58.10.435453 +0100,
0,0,0,0,10,0,10,0,35.68417409999995,,None,1,P,Z,2,,,301,pink,2023-11-15_16h57.58.156,experiment,2023.2.2,60.03810017840124,2023-11-15 16h58.10.435453 +0100,
0,0,0,0,11,0,11,0,37.78261029999999,,['space'],1,O,O,2,[0.5186100999999326],[None],301,pink,2023-11-15_16h57.58.156,experiment,2023.2.2,60.03810017840124,2023-11-15 16h58.10.435453 +0100,
0,0,0,0,,,,,,,,,,,,,,301,pink,2023-11-15_16h57.58.156,experiment,2023.2.2,60.03810017840124,2023-11-15 16h58.10.435453 +0100,
1,0,1,0,0,0,0,0,42.04558429999997,,None,1,E,,2,,,301,pink,2023-11-15_16h57.58.156,experiment,2023.2.2,60.03810017840124,2023-11-15 16h58.10.435453 +0100,
1,0,1,0,1,0,1,0,44.14410899999996,,None,1,O,,2,,,301,pink,2023-11-15_16h57.58.156,experiment,2023.2.2,60.03810017840124,2023-11-15 16h58.10.435453 +0100,
1,0,1,0,2,0,2,0,46.24233419999996,,['space'],1,E,E,2,[1.0248953999999912],[None],301,pink,2023-11-15_16h57.58.156,experiment,2023.2.2,60.03810017840124,2023-11-15 16h58.10.435453 +0100,
1,0,1,0,3,0,3,0,48.34059119999995,,None,1,U,O,2,,,301,pink,2023-11-15_16h57.58.156,experiment,2023.2.2,60.03810017840124,2023-11-15 16h58.10.435453 +0100,
1,0,1,0,4,0,4,0,50.438935000000015,,['space'],1,E,E,2,[0.4415783999999121],[None],301,pink,2023-11-15_16h57.58.156,experiment,2023.2.2,60.03810017840124,2023-11-15 16h58.10.435453 +0100,
1,0,1,0,5,0,5,0,52.536987899999986,,None,1,D,U,2,,,301,pink,2023-11-15_16h57.58.156,experiment,2023.2.2,60.03810017840124,2023-11-15 16h58.10.435453 +0100,
1,0,1,0,6,0,6,0,54.63524970000003,,['space'],1,E,E,2,[0.6812102000000095],[None],301,pink,2023-11-15_16h57.58.156,experiment,2023.2.2,60.03810017840124,2023-11-15 16h58.10.435453 +0100,
1,0,1,0,7,0,7,0,56.73367399999995,,None,1,C,D,2,,,301,pink,2023-11-15_16h57.58.156,experiment,2023.2.2,60.03810017840124,2023-11-15 16h58.10.435453 +0100,
1,0,1,0,8,0,8,0,58.83179800000005,,None,1,J,E,2,,,301,pink,2023-11-15_16h57.58.156,experiment,2023.2.2,60.03810017840124,2023-11-15 16h58.10.435453 +0100,
1,0,1,0,9,0,9,0,60.93017210000005,,None,1,Y,C,2,,,301,pink,2023-11-15_16h57.58.156,experiment,2023.2.2,60.03810017840124,2023-11-15 16h58.10.435453 +0100,
1,0,1,0,10,0,10,0,63.02854400000001,,['space'],1,J,J,2,[0.6818739999999934],[None],301,pink,2023-11-15_16h57.58.156,experiment,2023.2.2,60.03810017840124,2023-11-15 16h58.10.435453 +0100,
1,0,1,0,11,0,11,0,65.12680869999997,,None,0,Y,Y,2,,,301,pink,2023-11-15_16h57.58.156,experiment,2023.2.2,60.03810017840124,2023-11-15 16h58.10.435453 +0100,
1,0,1,0,,,,,,,,,,,,,,301,pink,2023-11-15_16h57.58.156,experiment,2023.2.2,60.03810017840124,2023-11-15 16h58.10.435453 +0100,
2,0,2,0,0,0,0,0,69.73968149999996,,None,1,E,,1,,,301,pink,2023-11-15_16h57.58.156,experiment,2023.2.2,60.03810017840124,2023-11-15 16h58.10.435453 +0100,
2,0,2,0,1,0,1,0,71.83802969999999,,['space'],1,E,E,1,[0.54618030000006],[None],301,pink,2023-11-15_16h57.58.156,experiment,2023.2.2,60.03810017840124,2023-11-15 16h58.10.435453 +0100,
2,0,2,0,2,0,2,0,73.9361447,,None,1,O,E,1,,,301,pink,2023-11-15_16h57.58.156,experiment,2023.2.2,60.03810017840124,2023-11-15 16h58.10.435453 +0100,
2,0,2,0,3,0,3,0,76.03439390000005,,None,1,N,O,1,,,301,pink,2023-11-15_16h57.58.156,experiment,2023.2.2,60.03810017840124,2023-11-15 16h58.10.435453 +0100,
2,0,2,0,4,0,4,0,78.1328873,,None,1,W,N,1,,,301,pink,2023-11-15_16h57.58.156,experiment,2023.2.2,60.03810017840124,2023-11-15 16h58.10.435453 +0100,
2,0,2,0,5,0,5,0,80.23098660000005,,None,1,S,W,1,,,301,pink,2023-11-15_16h57.58.156,experiment,2023.2.2,60.03810017840124,2023-11-15 16h58.10.435453 +0100,
2,0,2,0,6,0,6,0,82.32929239999999,,['space'],1,S,S,1,[0.580509099999972],[None],301,pink,2023-11-15_16h57.58.156,experiment,2023.2.2,60.03810017840124,2023-11-15 16h58.10.435453 +0100,
2,0,2,0,7,0,7,0,84.42735789999995,,None,1,A,S,1,,,301,pink,2023-11-15_16h57.58.156,experiment,2023.2.2,60.03810017840124,2023-11-15 16h58.10.435453 +0100,
2,0,2,0,8,0,8,0,86.52569110000002,,None,1,L,A,1,,,301,pink,2023-11-15_16h57.58.156,experiment,2023.2.2,60.03810017840124,2023-11-15 16h58.10.435453 +0100,
2,0,2,0,9,0,9,0,88.62437780000005,,['space'],1,L,L,1,[0.47726109999996424],[None],301,pink,2023-11-15_16h57.58.156,experiment,2023.2.2,60.03810017840124,2023-11-15 16h58.10.435453 +0100,
2,0,2,0,10,0,10,0,90.72246670000004,,['space'],1,L,L,1,[0.5367999000000054],[None],301,pink,2023-11-15_16h57.58.156,experiment,2023.2.2,60.03810017840124,2023-11-15 16h58.10.435453 +0100,
2,0,2,0,11,0,11,0,92.82093310000005,,['space'],1,L,L,1,[0.452117899999962],[None],301,pink,2023-11-15_16h57.58.156,experiment,2023.2.2,60.03810017840124,2023-11-15 16h58.10.435453 +0100,
2,0,2,0,,,,,,,,,,,,,,301,pink,2023-11-15_16h57.58.156,experiment,2023.2.2,60.03810017840124,2023-11-15 16h58.10.435453 +0100,
3,0,3,0,0,0,0,0,100.48085040000001,,None,1,Y,,2,,,301,pink,2023-11-15_16h57.58.156,experiment,2023.2.2,60.03810017840124,2023-11-15 16h58.10.435453 +0100,
3,0,3,0,1,0,1,0,102.58111399999996,,None,1,X,,2,,,301,pink,2023-11-15_16h57.58.156,experiment,2023.2.2,60.03810017840124,2023-11-15 16h58.10.435453 +0100,
3,0,3,0,2,0,2,0,104.6775738,,None,1,A,Y,2,,,301,pink,2023-11-15_16h57.58.156,experiment,2023.2.2,60.03810017840124,2023-11-15 16h58.10.435453 +0100,
3,0,3,0,3,0,3,0,106.77579300000002,,['space'],1,X,X,2,[0.46435040000005756],[None],301,pink,2023-11-15_16h57.58.156,experiment,2023.2.2,60.03810017840124,2023-11-15 16h58.10.435453 +0100,
3,0,3,0,4,0,4,0,108.8740732,,['space'],1,A,A,2,[0.7064400000000433],[None],301,pink,2023-11-15_16h57.58.156,experiment,2023.2.2,60.03810017840124,2023-11-15 16h58.10.435453 +0100,
3,0,3,0,5,0,5,0,110.97238000000004,,None,1,R,X,2,,,301,pink,2023-11-15_16h57.58.156,experiment,2023.2.2,60.03810017840124,2023-11-15 16h58.10.435453 +0100,
3,0,3,0,6,0,6,0,113.07061069999997,,None,1,R,A,2,,,301,pink,2023-11-15_16h57.58.156,experiment,2023.2.2,60.03810017840124,2023-11-15 16h58.10.435453 +0100,
3,0,3,0,7,0,7,0,115.16899220000005,,['space'],1,R,R,2,[0.4948402999999644],[None],301,pink,2023-11-15_16h57.58.156,experiment,2023.2.2,60.03810017840124,2023-11-15 16h58.10.435453 +0100,
3,0,3,0,8,0,8,0,117.26735069999995,,None,1,X,R,2,,,301,pink,2023-11-15_16h57.58.156,experiment,2023.2.2,60.03810017840124,2023-11-15 16h58.10.435453 +0100,
3,0,3,0,9,0,9,0,119.36549590000004,,['space'],1,R,R,2,[0.7377195999999913],[None],301,pink,2023-11-15_16h57.58.156,experiment,2023.2.2,60.03810017840124,2023-11-15 16h58.10.435453 +0100,
3,0,3,0,10,0,10,0,121.4637616,,None,1,F,X,2,,,301,pink,2023-11-15_16h57.58.156,experiment,2023.2.2,60.03810017840124,2023-11-15 16h58.10.435453 +0100,
3,0,3,0,11,0,11,0,123.5621314,,['space'],1,R,R,2,[0.5506851999999753],[None],301,pink,2023-11-15_16h57.58.156,experiment,2023.2.2,60.03810017840124,2023-11-15 16h58.10.435453 +0100,
3,0,3,0,,,,,,,,,,,,,,301,pink,2023-11-15_16h57.58.156,experiment,2023.2.2,60.03810017840124,2023-11-15 16h58.10.435453 +0100,
4,0,4,0,0,0,0,0,127.70860809999999,,None,1,L,,1,,,301,pink,2023-11-15_16h57.58.156,experiment,2023.2.2,60.03810017840124,2023-11-15 16h58.10.435453 +0100,
4,0,4,0,1,0,1,0,129.80682390000004,,['space'],1,L,L,1,[0.4680875000000242],[None],301,pink,2023-11-15_16h57.58.156,experiment,2023.2.2,60.03810017840124,2023-11-15 16h58.10.435453 +0100,
4,0,4,0,2,0,2,0,131.90510500000005,,None,1,B,L,1,,,301,pink,2023-11-15_16h57.58.156,experiment,2023.2.2,60.03810017840124,2023-11-15 16h58.10.435453 +0100,
4,0,4,0,3,0,3,0,134.0034849,,['space'],1,B,B,1,[0.40910759999997026],[None],301,pink,2023-11-15_16h57.58.156,experiment,2023.2.2,60.03810017840124,2023-11-15 16h58.10.435453 +0100,
4,0,4,0,4,0,4,0,136.10169359999998,,None,1,P,B,1,,,301,pink,2023-11-15_16h57.58.156,experiment,2023.2.2,60.03810017840124,2023-11-15 16h58.10.435453 +0100,
4,0,4,0,5,0,5,0,138.19990110000003,,['space'],1,P,P,1,[0.4494027000000642],[None],301,pink,2023-11-15_16h57.58.156,experiment,2023.2.2,60.03810017840124,2023-11-15 16h58.10.435453 +0100,
4,0,4,0,6,0,6,0,140.2983858,,None,1,R,P,1,,,301,pink,2023-11-15_16h57.58.156,experiment,2023.2.2,60.03810017840124,2023-11-15 16h58.10.435453 +0100,
4,0,4,0,7,0,7,0,142.39663959999996,,['space'],1,R,R,1,[0.42387489999998706],[None],301,pink,2023-11-15_16h57.58.156,experiment,2023.2.2,60.03810017840124,2023-11-15 16h58.10.435453 +0100,
4,0,4,0,8,0,8,0,144.49493340000004,,['space'],1,R,R,1,[0.4476181999999653],[None],301,pink,2023-11-15_16h57.58.156,experiment,2023.2.2,60.03810017840124,2023-11-15 16h58.10.435453 +0100,
4,0,4,0,9,0,9,0,146.59277139999995,,['space'],1,R,R,1,[0.41328469999996287],[None],301,pink,2023-11-15_16h57.58.156,experiment,2023.2.2,60.03810017840124,2023-11-15 16h58.10.435453 +0100,
4,0,4,0,10,0,10,0,148.6914696,,None,1,E,R,1,,,301,pink,2023-11-15_16h57.58.156,experiment,2023.2.2,60.03810017840124,2023-11-15 16h58.10.435453 +0100,
4,0,4,0,11,0,11,0,150.7896521,,['space'],1,E,E,1,[0.4804855999999518],[None],301,pink,2023-11-15_16h57.58.156,experiment,2023.2.2,60.03810017840124,2023-11-15 16h58.10.435453 +0100,
4,0,4,0,,,,,,,,,,,,,,301,pink,2023-11-15_16h57.58.156,experiment,2023.2.2,60.03810017840124,2023-11-15 16h58.10.435453 +0100,
5,0,5,0,0,0,0,0,154.66988000000003,,None,1,B,,2,,,301,pink,2023-11-15_16h57.58.156,experiment,2023.2.2,60.03810017840124,2023-11-15 16h58.10.435453 +0100,
5,0,5,0,1,0,1,0,156.76800360000004,,['space'],0,B,,2,[0.65073110000003],[None],301,pink,2023-11-15_16h57.58.156,experiment,2023.2.2,60.03810017840124,2023-11-15 16h58.10.435453 +0100,
5,0,5,0,2,0,2,0,158.86635079999996,,['space'],1,B,B,2,[0.7201982999999927],[None],301,pink,2023-11-15_16h57.58.156,experiment,2023.2.2,60.03810017840124,2023-11-15 16h58.10.435453 +0100,
5,0,5,0,3,0,3,0,160.96472630000005,,None,1,V,B,2,,,301,pink,2023-11-15_16h57.58.156,experiment,2023.2.2,60.03810017840124,2023-11-15 16h58.10.435453 +0100,
5,0,5,0,4,0,4,0,163.06295739999996,,None,1,T,B,2,,,301,pink,2023-11-15_16h57.58.156,experiment,2023.2.2,60.03810017840124,2023-11-15 16h58.10.435453 +0100,
5,0,5,0,5,0,5,0,165.1611362,,['space'],1,V,V,2,[0.4417819000000236],[None],301,pink,2023-11-15_16h57.58.156,experiment,2023.2.2,60.03810017840124,2023-11-15 16h58.10.435453 +0100,
5,0,5,0,6,0,6,0,167.2594021,,['space'],1,T,T,2,[0.40747939999994287],[None],301,pink,2023-11-15_16h57.58.156,experiment,2023.2.2,60.03810017840124,2023-11-15 16h58.10.435453 +0100,
5,0,5,0,7,0,7,0,169.35761179999997,,None,1,Y,V,2,,,301,pink,2023-11-15_16h57.58.156,experiment,2023.2.2,60.03810017840124,2023-11-15 16h58.10.435453 +0100,
5,0,5,0,8,0,8,0,171.45608879999997,,None,1,C,T,2,,,301,pink,2023-11-15_16h57.58.156,experiment,2023.2.2,60.03810017840124,2023-11-15 16h58.10.435453 +0100,
5,0,5,0,9,0,9,0,173.5541912,,['space'],1,Y,Y,2,[0.4856366999999864],[None],301,pink,2023-11-15_16h57.58.156,experiment,2023.2.2,60.03810017840124,2023-11-15 16h58.10.435453 +0100,
5,0,5,0,10,0,10,0,175.65256929999998,,None,1,X,C,2,,,301,pink,2023-11-15_16h57.58.156,experiment,2023.2.2,60.03810017840124,2023-11-15 16h58.10.435453 +0100,
5,0,5,0,11,0,11,0,177.7507935,,['space'],1,Y,Y,2,[0.4152083000000175],[None],301,pink,2023-11-15_16h57.58.156,experiment,2023.2.2,60.03810017840124,2023-11-15 16h58.10.435453 +0100,
5,0,5,0,,,,,,,,,,,,,,301,pink,2023-11-15_16h57.58.156,experiment,2023.2.2,60.03810017840124,2023-11-15 16h58.10.435453 +0100,
6,0,6,0,0,0,0,0,181.93075520000002,,None,1,A,,1,,,301,pink,2023-11-15_16h57.58.156,experiment,2023.2.2,60.03810017840124,2023-11-15 16h58.10.435453 +0100,
6,0,6,0,1,0,1,0,184.02909910000005,,None,1,B,A,1,,,301,pink,2023-11-15_16h57.58.156,experiment,2023.2.2,60.03810017840124,2023-11-15 16h58.10.435453 +0100,
6,0,6,0,2,0,2,0,186.12714770000002,,None,1,Z,B,1,,,301,pink,2023-11-15_16h57.58.156,experiment,2023.2.2,60.03810017840124,2023-11-15 16h58.10.435453 +0100,
6,0,6,0,3,0,3,0,188.22544960000005,,None,1,M,Z,1,,,301,pink,2023-11-15_16h57.58.156,experiment,2023.2.2,60.03810017840124,2023-11-15 16h58.10.435453 +0100,
6,0,6,0,4,0,4,0,190.3238404,,['space'],1,M,M,1,[0.6790886999999657],[None],301,pink,2023-11-15_16h57.58.156,experiment,2023.2.2,60.03810017840124,2023-11-15 16h58.10.435453 +0100,
6,0,6,0,5,0,5,0,192.42197109999995,,['space'],1,M,M,1,[0.4868650000000798],[None],301,pink,2023-11-15_16h57.58.156,experiment,2023.2.2,60.03810017840124,2023-11-15 16h58.10.435453 +0100,
6,0,6,0,6,0,6,0,194.520669,,None,1,O,M,1,,,301,pink,2023-11-15_16h57.58.156,experiment,2023.2.2,60.03810017840124,2023-11-15 16h58.10.435453 +0100,
6,0,6,0,7,0,7,0,196.61859909999998,,None,1,Z,O,1,,,301,pink,2023-11-15_16h57.58.156,experiment,2023.2.2,60.03810017840124,2023-11-15 16h58.10.435453 +0100,
6,0,6,0,8,0,8,0,198.716901,,None,1,O,Z,1,,,301,pink,2023-11-15_16h57.58.156,experiment,2023.2.2,60.03810017840124,2023-11-15 16h58.10.435453 +0100,
6,0,6,0,9,0,9,0,200.81522180000002,,None,0,O,O,1,,,301,pink,2023-11-15_16h57.58.156,experiment,2023.2.2,60.03810017840124,2023-11-15 16h58.10.435453 +0100,
6,0,6,0,10,0,10,0,202.9134828,,None,1,L,O,1,,,301,pink,2023-11-15_16h57.58.156,experiment,2023.2.2,60.03810017840124,2023-11-15 16h58.10.435453 +0100,
6,0,6,0,11,0,11,0,205.01223819999996,,['space'],1,L,L,1,[0.453175700000088],[None],301,pink,2023-11-15_16h57.58.156,experiment,2023.2.2,60.03810017840124,2023-11-15 16h58.10.435453 +0100,
6,0,6,0,,,,,,,,,,,,,,301,pink,2023-11-15_16h57.58.156,experiment,2023.2.2,60.03810017840124,2023-11-15 16h58.10.435453 +0100,
7,0,7,0,0,0,0,0,210.52386330000002,,None,1,Q,,1,,,301,pink,2023-11-15_16h57.58.156,experiment,2023.2.2,60.03810017840124,2023-11-15 16h58.10.435453 +0100,
7,0,7,0,1,0,1,0,212.6222265,,None,1,L,Q,1,,,301,pink,2023-11-15_16h57.58.156,experiment,2023.2.2,60.03810017840124,2023-11-15 16h58.10.435453 +0100,
7,0,7,0,2,0,2,0,214.72037920000002,,None,1,D,L,1,,,301,pink,2023-11-15_16h57.58.156,experiment,2023.2.2,60.03810017840124,2023-11-15 16h58.10.435453 +0100,
7,0,7,0,3,0,3,0,216.81854150000004,,None,1,S,D,1,,,301,pink,2023-11-15_16h57.58.156,experiment,2023.2.2,60.03810017840124,2023-11-15 16h58.10.435453 +0100,
7,0,7,0,4,0,4,0,218.91706069999998,,['space'],1,S,S,1,[0.6021766999999727],[None],301,pink,2023-11-15_16h57.58.156,experiment,2023.2.2,60.03810017840124,2023-11-15 16h58.10.435453 +0100,
7,0,7,0,5,0,5,0,221.0151667,,None,1,H,S,1,,,301,pink,2023-11-15_16h57.58.156,experiment,2023.2.2,60.03810017840124,2023-11-15 16h58.10.435453 +0100,
7,0,7,0,6,0,6,0,223.11351979999995,,None,1,M,H,1,,,301,pink,2023-11-15_16h57.58.156,experiment,2023.2.2,60.03810017840124,2023-11-15 16h58.10.435453 +0100,
7,0,7,0,7,0,7,0,225.21184549999998,,['space'],1,M,M,1,[0.45632499999999254],[None],301,pink,2023-11-15_16h57.58.156,experiment,2023.2.2,60.03810017840124,2023-11-15 16h58.10.435453 +0100,
7,0,7,0,8,0,8,0,227.31016060000002,,None,1,H,M,1,,,301,pink,2023-11-15_16h57.58.156,experiment,2023.2.2,60.03810017840124,2023-11-15 16h58.10.435453 +0100,
7,0,7,0,9,0,9,0,229.40871130000005,,['space'],1,H,H,1,[0.47557480000000396],[None],301,pink,2023-11-15_16h57.58.156,experiment,2023.2.2,60.03810017840124,2023-11-15 16h58.10.435453 +0100,
7,0,7,0,10,0,10,0,231.50656319999996,,None,1,X,H,1,,,301,pink,2023-11-15_16h57.58.156,experiment,2023.2.2,60.03810017840124,2023-11-15 16h58.10.435453 +0100,
7,0,7,0,11,0,11,0,233.60503640000002,,None,1,M,X,1,,,301,pink,2023-11-15_16h57.58.156,experiment,2023.2.2,60.03810017840124,2023-11-15 16h58.10.435453 +0100,
7,0,7,0,,,,,,,,,,,,,,301,pink,2023-11-15_16h57.58.156,experiment,2023.2.2,60.03810017840124,2023-11-15 16h58.10.435453 +0100,
