trials_3.thisRepN,trials_3.thisTrialN,trials_3.thisN,trials_3.thisIndex,trials.thisRepN,trials.thisTrialN,trials.thisN,trials.thisIndex,thisRow.t,notes,key_resp_2.keys,key_resp_2.corr,letter.routineEndVal,nback.routineEndVal,type.routineEndVal,key_resp_2.rt,key_resp_2.duration,participant,session,date,expName,psychopyVersion,frameRate,expStart,
0,0,0,0,0,0,0,0,18.331392199994298,,None,1,J,,2,,,305,brown,2023-11-16_20h51.51.220,experiment,2023.2.2,60.070955814826206,2023-11-16 20h52.13.621941 +0100,
0,0,0,0,1,0,1,0,20.426617199991597,,None,1,F,,2,,,305,brown,2023-11-16_20h51.51.220,experiment,2023.2.2,60.070955814826206,2023-11-16 20h52.13.621941 +0100,
0,0,0,0,2,0,2,0,22.524166499992134,,['space'],1,J,J,2,[0.3959143999963999],[None],305,brown,2023-11-16_20h51.51.220,experiment,2023.2.2,60.070955814826206,2023-11-16 20h52.13.621941 +0100,
0,0,0,0,3,0,3,0,24.62232429999858,,None,1,R,F,2,,,305,brown,2023-11-16_20h51.51.220,experiment,2023.2.2,60.070955814826206,2023-11-16 20h52.13.621941 +0100,
0,0,0,0,4,0,4,0,26.72069199998805,,None,1,X,J,2,,,305,brown,2023-11-16_20h51.51.220,experiment,2023.2.2,60.070955814826206,2023-11-16 20h52.13.621941 +0100,
0,0,0,0,5,0,5,0,28.818886799999746,,None,1,B,R,2,,,305,brown,2023-11-16_20h51.51.220,experiment,2023.2.2,60.070955814826206,2023-11-16 20h52.13.621941 +0100,
0,0,0,0,6,0,6,0,30.917305499999202,,None,1,I,X,2,,,305,brown,2023-11-16_20h51.51.220,experiment,2023.2.2,60.070955814826206,2023-11-16 20h52.13.621941 +0100,
0,0,0,0,7,0,7,0,33.01550199999474,,['space'],1,B,B,2,[0.4358760000031907],[None],305,brown,2023-11-16_20h51.51.220,experiment,2023.2.2,60.070955814826206,2023-11-16 20h52.13.621941 +0100,
0,0,0,0,8,0,8,0,35.113841200000024,,['space'],1,I,I,2,[0.6455044999893289],[None],305,brown,2023-11-16_20h51.51.220,experiment,2023.2.2,60.070955814826206,2023-11-16 20h52.13.621941 +0100,
0,0,0,0,9,0,9,0,37.212238099993556,,None,1,R,B,2,,,305,brown,2023-11-16_20h51.51.220,experiment,2023.2.2,60.070955814826206,2023-11-16 20h52.13.621941 +0100,
0,0,0,0,10,0,10,0,39.31036109999695,,None,1,U,I,2,,,305,brown,2023-11-16_20h51.51.220,experiment,2023.2.2,60.070955814826206,2023-11-16 20h52.13.621941 +0100,
0,0,0,0,11,0,11,0,41.411463599986746,,None,1,V,R,2,,,305,brown,2023-11-16_20h51.51.220,experiment,2023.2.2,60.070955814826206,2023-11-16 20h52.13.621941 +0100,
0,0,0,0,,,,,,,,,,,,,,305,brown,2023-11-16_20h51.51.220,experiment,2023.2.2,60.070955814826206,2023-11-16 20h52.13.621941 +0100,
1,0,1,0,0,0,0,0,44.57277279999107,,None,1,U,,1,,,305,brown,2023-11-16_20h51.51.220,experiment,2023.2.2,60.070955814826206,2023-11-16 20h52.13.621941 +0100,
1,0,1,0,1,0,1,0,46.67087809999066,,['space'],1,U,U,1,[0.4392942000122275],[None],305,brown,2023-11-16_20h51.51.220,experiment,2023.2.2,60.070955814826206,2023-11-16 20h52.13.621941 +0100,
1,0,1,0,2,0,2,0,48.769199599992135,,None,1,V,U,1,,,305,brown,2023-11-16_20h51.51.220,experiment,2023.2.2,60.070955814826206,2023-11-16 20h52.13.621941 +0100,
1,0,1,0,3,0,3,0,50.86760269998922,,['space'],1,V,V,1,[0.5404894000093918],[None],305,brown,2023-11-16_20h51.51.220,experiment,2023.2.2,60.070955814826206,2023-11-16 20h52.13.621941 +0100,
1,0,1,0,4,0,4,0,52.965456399993855,,None,1,Z,V,1,,,305,brown,2023-11-16_20h51.51.220,experiment,2023.2.2,60.070955814826206,2023-11-16 20h52.13.621941 +0100,
1,0,1,0,5,0,5,0,55.06448659999296,,None,1,G,Z,1,,,305,brown,2023-11-16_20h51.51.220,experiment,2023.2.2,60.070955814826206,2023-11-16 20h52.13.621941 +0100,
1,0,1,0,6,0,6,0,57.1620116999984,,None,1,K,G,1,,,305,brown,2023-11-16_20h51.51.220,experiment,2023.2.2,60.070955814826206,2023-11-16 20h52.13.621941 +0100,
1,0,1,0,7,0,7,0,59.26072849999764,,['space'],1,K,K,1,[0.5312601000041468],[None],305,brown,2023-11-16_20h51.51.220,experiment,2023.2.2,60.070955814826206,2023-11-16 20h52.13.621941 +0100,
1,0,1,0,8,0,8,0,61.3586013999884,,None,1,P,K,1,,,305,brown,2023-11-16_20h51.51.220,experiment,2023.2.2,60.070955814826206,2023-11-16 20h52.13.621941 +0100,
1,0,1,0,9,0,9,0,63.4572349999944,,['space'],1,P,P,1,[0.46720970000023954],[None],305,brown,2023-11-16_20h51.51.220,experiment,2023.2.2,60.070955814826206,2023-11-16 20h52.13.621941 +0100,
1,0,1,0,10,0,10,0,65.55549739999697,,['space'],1,P,P,1,[0.47504240000853315],[None],305,brown,2023-11-16_20h51.51.220,experiment,2023.2.2,60.070955814826206,2023-11-16 20h52.13.621941 +0100,
1,0,1,0,11,0,11,0,67.65488189998723,,None,1,O,P,1,,,305,brown,2023-11-16_20h51.51.220,experiment,2023.2.2,60.070955814826206,2023-11-16 20h52.13.621941 +0100,
1,0,1,0,,,,,,,,,,,,,,305,brown,2023-11-16_20h51.51.220,experiment,2023.2.2,60.070955814826206,2023-11-16 20h52.13.621941 +0100,
2,0,2,0,0,0,0,0,71.18406269999105,,None,1,D,,2,,,305,brown,2023-11-16_20h51.51.220,experiment,2023.2.2,60.070955814826206,2023-11-16 20h52.13.621941 +0100,
2,0,2,0,1,0,1,0,73.28248429999803,,None,1,T,,2,,,305,brown,2023-11-16_20h51.51.220,experiment,2023.2.2,60.070955814826206,2023-11-16 20h52.13.621941 +0100,
2,0,2,0,2,0,2,0,75.3806906999962,,['space'],1,D,D,2,[0.4291479000094114],[None],305,brown,2023-11-16_20h51.51.220,experiment,2023.2.2,60.070955814826206,2023-11-16 20h52.13.621941 +0100,
2,0,2,0,3,0,3,0,77.47896290000062,,None,1,P,T,2,,,305,brown,2023-11-16_20h51.51.220,experiment,2023.2.2,60.070955814826206,2023-11-16 20h52.13.621941 +0100,
2,0,2,0,4,0,4,0,79.57725919999939,,['space'],0,P,D,2,[0.6122328999917954],[None],305,brown,2023-11-16_20h51.51.220,experiment,2023.2.2,60.070955814826206,2023-11-16 20h52.13.621941 +0100,
2,0,2,0,5,0,5,0,81.67560649999359,,['space'],0,D,P,2,[0.9785666999960085],[None],305,brown,2023-11-16_20h51.51.220,experiment,2023.2.2,60.070955814826206,2023-11-16 20h52.13.621941 +0100,
2,0,2,0,6,0,6,0,83.7737744999904,,['space'],1,P,P,2,[0.8109324999968521],[None],305,brown,2023-11-16_20h51.51.220,experiment,2023.2.2,60.070955814826206,2023-11-16 20h52.13.621941 +0100,
2,0,2,0,7,0,7,0,85.87205749998975,,None,1,T,D,2,,,305,brown,2023-11-16_20h51.51.220,experiment,2023.2.2,60.070955814826206,2023-11-16 20h52.13.621941 +0100,
2,0,2,0,8,0,8,0,87.970439599987,,['space'],1,P,P,2,[0.9556519000034314],[None],305,brown,2023-11-16_20h51.51.220,experiment,2023.2.2,60.070955814826206,2023-11-16 20h52.13.621941 +0100,
2,0,2,0,9,0,9,0,90.06855619999988,,['space'],1,T,T,2,[1.0024948999925982],[None],305,brown,2023-11-16_20h51.51.220,experiment,2023.2.2,60.070955814826206,2023-11-16 20h52.13.621941 +0100,
2,0,2,0,10,0,10,0,92.16683269999339,,None,1,K,P,2,,,305,brown,2023-11-16_20h51.51.220,experiment,2023.2.2,60.070955814826206,2023-11-16 20h52.13.621941 +0100,
2,0,2,0,11,0,11,0,94.26506019999215,,None,1,S,T,2,,,305,brown,2023-11-16_20h51.51.220,experiment,2023.2.2,60.070955814826206,2023-11-16 20h52.13.621941 +0100,
2,0,2,0,,,,,,,,,,,,,,305,brown,2023-11-16_20h51.51.220,experiment,2023.2.2,60.070955814826206,2023-11-16 20h52.13.621941 +0100,
3,0,3,0,0,0,0,0,97.34597109998867,,None,1,K,,2,,,305,brown,2023-11-16_20h51.51.220,experiment,2023.2.2,60.070955814826206,2023-11-16 20h52.13.621941 +0100,
3,0,3,0,1,0,1,0,99.44436639999913,,None,1,S,,2,,,305,brown,2023-11-16_20h51.51.220,experiment,2023.2.2,60.070955814826206,2023-11-16 20h52.13.621941 +0100,
3,0,3,0,2,0,2,0,101.54250999999931,,['space'],1,K,K,2,[0.6974706000037258],[None],305,brown,2023-11-16_20h51.51.220,experiment,2023.2.2,60.070955814826206,2023-11-16 20h52.13.621941 +0100,
3,0,3,0,3,0,3,0,103.64087669999572,,None,1,T,S,2,,,305,brown,2023-11-16_20h51.51.220,experiment,2023.2.2,60.070955814826206,2023-11-16 20h52.13.621941 +0100,
3,0,3,0,4,0,4,0,105.7389625999931,,None,1,W,K,2,,,305,brown,2023-11-16_20h51.51.220,experiment,2023.2.2,60.070955814826206,2023-11-16 20h52.13.621941 +0100,
3,0,3,0,5,0,5,0,107.83742069998698,,['space'],1,T,T,2,[0.46278159999928903],[None],305,brown,2023-11-16_20h51.51.220,experiment,2023.2.2,60.070955814826206,2023-11-16 20h52.13.621941 +0100,
3,0,3,0,6,0,6,0,109.9357103999937,,['space'],1,W,W,2,[0.4768015000008745],[None],305,brown,2023-11-16_20h51.51.220,experiment,2023.2.2,60.070955814826206,2023-11-16 20h52.13.621941 +0100,
3,0,3,0,7,0,7,0,112.03385799999523,,['space'],1,T,T,2,[0.6005997000029311],[None],305,brown,2023-11-16_20h51.51.220,experiment,2023.2.2,60.070955814826206,2023-11-16 20h52.13.621941 +0100,
3,0,3,0,8,0,8,0,114.13208579999628,,None,1,O,W,2,,,305,brown,2023-11-16_20h51.51.220,experiment,2023.2.2,60.070955814826206,2023-11-16 20h52.13.621941 +0100,
3,0,3,0,9,0,9,0,116.230398899992,,None,1,O,T,2,,,305,brown,2023-11-16_20h51.51.220,experiment,2023.2.2,60.070955814826206,2023-11-16 20h52.13.621941 +0100,
3,0,3,0,10,0,10,0,118.32864259999769,,['space'],1,O,O,2,[1.123006500012707],[None],305,brown,2023-11-16_20h51.51.220,experiment,2023.2.2,60.070955814826206,2023-11-16 20h52.13.621941 +0100,
3,0,3,0,11,0,11,0,120.42706609999004,,['space'],1,O,O,2,[1.2234561999939615],[None],305,brown,2023-11-16_20h51.51.220,experiment,2023.2.2,60.070955814826206,2023-11-16 20h52.13.621941 +0100,
3,0,3,0,,,,,,,,,,,,,,305,brown,2023-11-16_20h51.51.220,experiment,2023.2.2,60.070955814826206,2023-11-16 20h52.13.621941 +0100,
4,0,4,0,0,0,0,0,123.57416229999217,,None,1,C,,1,,,305,brown,2023-11-16_20h51.51.220,experiment,2023.2.2,60.070955814826206,2023-11-16 20h52.13.621941 +0100,
4,0,4,0,1,0,1,0,125.67396619998908,,None,1,H,C,1,,,305,brown,2023-11-16_20h51.51.220,experiment,2023.2.2,60.070955814826206,2023-11-16 20h52.13.621941 +0100,
4,0,4,0,2,0,2,0,127.7709778999997,,None,1,F,H,1,,,305,brown,2023-11-16_20h51.51.220,experiment,2023.2.2,60.070955814826206,2023-11-16 20h52.13.621941 +0100,
4,0,4,0,3,0,3,0,129.86914529999194,,['space'],1,F,F,1,[1.2502840000088327],[None],305,brown,2023-11-16_20h51.51.220,experiment,2023.2.2,60.070955814826206,2023-11-16 20h52.13.621941 +0100,
4,0,4,0,4,0,4,0,131.96756829999504,,['space'],1,F,F,1,[0.6980951999867102],[None],305,brown,2023-11-16_20h51.51.220,experiment,2023.2.2,60.070955814826206,2023-11-16 20h52.13.621941 +0100,
4,0,4,0,5,0,5,0,134.0657460999937,,['space'],1,F,F,1,[0.6113786999922013],[None],305,brown,2023-11-16_20h51.51.220,experiment,2023.2.2,60.070955814826206,2023-11-16 20h52.13.621941 +0100,
4,0,4,0,6,0,6,0,136.1639131999982,,None,1,M,F,1,,,305,brown,2023-11-16_20h51.51.220,experiment,2023.2.2,60.070955814826206,2023-11-16 20h52.13.621941 +0100,
4,0,4,0,7,0,7,0,138.26240389999293,,None,1,S,M,1,,,305,brown,2023-11-16_20h51.51.220,experiment,2023.2.2,60.070955814826206,2023-11-16 20h52.13.621941 +0100,
4,0,4,0,8,0,8,0,140.3606574000005,,None,1,V,S,1,,,305,brown,2023-11-16_20h51.51.220,experiment,2023.2.2,60.070955814826206,2023-11-16 20h52.13.621941 +0100,
4,0,4,0,9,0,9,0,142.45893159999105,,['space'],1,V,V,1,[0.46446230000583455],[None],305,brown,2023-11-16_20h51.51.220,experiment,2023.2.2,60.070955814826206,2023-11-16 20h52.13.621941 +0100,
4,0,4,0,10,0,10,0,144.55713889999606,,['space'],1,V,V,1,[0.5649528999929316],[None],305,brown,2023-11-16_20h51.51.220,experiment,2023.2.2,60.070955814826206,2023-11-16 20h52.13.621941 +0100,
4,0,4,0,11,0,11,0,146.65547319999314,,None,1,P,V,1,,,305,brown,2023-11-16_20h51.51.220,experiment,2023.2.2,60.070955814826206,2023-11-16 20h52.13.621941 +0100,
4,0,4,0,,,,,,,,,,,,,,305,brown,2023-11-16_20h51.51.220,experiment,2023.2.2,60.070955814826206,2023-11-16 20h52.13.621941 +0100,
5,0,5,0,0,0,0,0,150.20245169999544,,None,1,D,,2,,,305,brown,2023-11-16_20h51.51.220,experiment,2023.2.2,60.070955814826206,2023-11-16 20h52.13.621941 +0100,
5,0,5,0,1,0,1,0,152.30077469999378,,None,1,Y,,2,,,305,brown,2023-11-16_20h51.51.220,experiment,2023.2.2,60.070955814826206,2023-11-16 20h52.13.621941 +0100,
5,0,5,0,2,0,2,0,154.39901629999804,,None,1,Z,D,2,,,305,brown,2023-11-16_20h51.51.220,experiment,2023.2.2,60.070955814826206,2023-11-16 20h52.13.621941 +0100,
5,0,5,0,3,0,3,0,156.49740849999944,,None,1,I,Y,2,,,305,brown,2023-11-16_20h51.51.220,experiment,2023.2.2,60.070955814826206,2023-11-16 20h52.13.621941 +0100,
5,0,5,0,4,0,4,0,158.5955025999865,,"['space', 'space']",0,Z,Z,2,"[0.435251300004893, 0.7065731000038795]","[None, None]",305,brown,2023-11-16_20h51.51.220,experiment,2023.2.2,60.070955814826206,2023-11-16 20h52.13.621941 +0100,
5,0,5,0,5,0,5,0,160.6939546999929,,None,1,K,I,2,,,305,brown,2023-11-16_20h51.51.220,experiment,2023.2.2,60.070955814826206,2023-11-16 20h52.13.621941 +0100,
5,0,5,0,6,0,6,0,162.7922247999959,,None,0,Z,Z,2,,,305,brown,2023-11-16_20h51.51.220,experiment,2023.2.2,60.070955814826206,2023-11-16 20h52.13.621941 +0100,
5,0,5,0,7,0,7,0,164.89036599999235,,['space'],1,K,K,2,[0.7397569000022486],[None],305,brown,2023-11-16_20h51.51.220,experiment,2023.2.2,60.070955814826206,2023-11-16 20h52.13.621941 +0100,
5,0,5,0,8,0,8,0,166.98872989999654,,None,1,Q,Z,2,,,305,brown,2023-11-16_20h51.51.220,experiment,2023.2.2,60.070955814826206,2023-11-16 20h52.13.621941 +0100,
5,0,5,0,9,0,9,0,169.08694929999183,,['space'],1,K,K,2,[0.49681409999902826],[None],305,brown,2023-11-16_20h51.51.220,experiment,2023.2.2,60.070955814826206,2023-11-16 20h52.13.621941 +0100,
5,0,5,0,10,0,10,0,171.18534139999247,,None,1,Y,Q,2,,,305,brown,2023-11-16_20h51.51.220,experiment,2023.2.2,60.070955814826206,2023-11-16 20h52.13.621941 +0100,
5,0,5,0,11,0,11,0,173.2834703999979,,None,1,X,K,2,,,305,brown,2023-11-16_20h51.51.220,experiment,2023.2.2,60.070955814826206,2023-11-16 20h52.13.621941 +0100,
5,0,5,0,,,,,,,,,,,,,,305,brown,2023-11-16_20h51.51.220,experiment,2023.2.2,60.070955814826206,2023-11-16 20h52.13.621941 +0100,
6,0,6,0,0,0,0,0,176.61405099999683,,None,1,Y,,1,,,305,brown,2023-11-16_20h51.51.220,experiment,2023.2.2,60.070955814826206,2023-11-16 20h52.13.621941 +0100,
6,0,6,0,1,0,1,0,178.7124688999902,,None,1,U,Y,1,,,305,brown,2023-11-16_20h51.51.220,experiment,2023.2.2,60.070955814826206,2023-11-16 20h52.13.621941 +0100,
6,0,6,0,2,0,2,0,180.8105252999958,,None,1,A,U,1,,,305,brown,2023-11-16_20h51.51.220,experiment,2023.2.2,60.070955814826206,2023-11-16 20h52.13.621941 +0100,
6,0,6,0,3,0,3,0,182.9089047999878,,None,1,X,A,1,,,305,brown,2023-11-16_20h51.51.220,experiment,2023.2.2,60.070955814826206,2023-11-16 20h52.13.621941 +0100,
6,0,6,0,4,0,4,0,185.00732859999698,,['space'],1,X,X,1,[0.7339848999981768],[None],305,brown,2023-11-16_20h51.51.220,experiment,2023.2.2,60.070955814826206,2023-11-16 20h52.13.621941 +0100,
6,0,6,0,5,0,5,0,187.10558049999236,,None,1,R,X,1,,,305,brown,2023-11-16_20h51.51.220,experiment,2023.2.2,60.070955814826206,2023-11-16 20h52.13.621941 +0100,
6,0,6,0,6,0,6,0,189.2037241999933,,None,1,V,R,1,,,305,brown,2023-11-16_20h51.51.220,experiment,2023.2.2,60.070955814826206,2023-11-16 20h52.13.621941 +0100,
6,0,6,0,7,0,7,0,191.30200079998758,,None,1,A,V,1,,,305,brown,2023-11-16_20h51.51.220,experiment,2023.2.2,60.070955814826206,2023-11-16 20h52.13.621941 +0100,
6,0,6,0,8,0,8,0,193.40036689999397,,None,1,N,A,1,,,305,brown,2023-11-16_20h51.51.220,experiment,2023.2.2,60.070955814826206,2023-11-16 20h52.13.621941 +0100,
6,0,6,0,9,0,9,0,195.49871719999646,,['space'],1,N,N,1,[0.7102913999988232],[None],305,brown,2023-11-16_20h51.51.220,experiment,2023.2.2,60.070955814826206,2023-11-16 20h52.13.621941 +0100,
6,0,6,0,10,0,10,0,197.596996399996,,None,1,T,N,1,,,305,brown,2023-11-16_20h51.51.220,experiment,2023.2.2,60.070955814826206,2023-11-16 20h52.13.621941 +0100,
6,0,6,0,11,0,11,0,199.6950715999992,,['space'],1,T,T,1,[0.4439062000019476],[None],305,brown,2023-11-16_20h51.51.220,experiment,2023.2.2,60.070955814826206,2023-11-16 20h52.13.621941 +0100,
6,0,6,0,,,,,,,,,,,,,,305,brown,2023-11-16_20h51.51.220,experiment,2023.2.2,60.070955814826206,2023-11-16 20h52.13.621941 +0100,
7,0,7,0,0,0,0,0,203.10900559999573,,None,1,T,,1,,,305,brown,2023-11-16_20h51.51.220,experiment,2023.2.2,60.070955814826206,2023-11-16 20h52.13.621941 +0100,
7,0,7,0,1,0,1,0,205.20721879998746,,['space'],1,T,T,1,[0.5314649000065401],[None],305,brown,2023-11-16_20h51.51.220,experiment,2023.2.2,60.070955814826206,2023-11-16 20h52.13.621941 +0100,
7,0,7,0,2,0,2,0,207.30548339999223,,None,1,A,T,1,,,305,brown,2023-11-16_20h51.51.220,experiment,2023.2.2,60.070955814826206,2023-11-16 20h52.13.621941 +0100,
7,0,7,0,3,0,3,0,209.40366429999995,,None,1,E,A,1,,,305,brown,2023-11-16_20h51.51.220,experiment,2023.2.2,60.070955814826206,2023-11-16 20h52.13.621941 +0100,
7,0,7,0,4,0,4,0,211.50197499999194,,['space'],1,E,E,1,[0.5841021999949589],[None],305,brown,2023-11-16_20h51.51.220,experiment,2023.2.2,60.070955814826206,2023-11-16 20h52.13.621941 +0100,
7,0,7,0,5,0,5,0,213.6002787999896,,['space'],1,E,E,1,[0.4932851000048686],[None],305,brown,2023-11-16_20h51.51.220,experiment,2023.2.2,60.070955814826206,2023-11-16 20h52.13.621941 +0100,
7,0,7,0,6,0,6,0,215.69875309999043,,None,1,F,E,1,,,305,brown,2023-11-16_20h51.51.220,experiment,2023.2.2,60.070955814826206,2023-11-16 20h52.13.621941 +0100,
7,0,7,0,7,0,7,0,217.797089899992,,None,1,R,F,1,,,305,brown,2023-11-16_20h51.51.220,experiment,2023.2.2,60.070955814826206,2023-11-16 20h52.13.621941 +0100,
7,0,7,0,8,0,8,0,219.89512309999554,,['space'],0,C,R,1,[0.7083663000084925],[None],305,brown,2023-11-16_20h51.51.220,experiment,2023.2.2,60.070955814826206,2023-11-16 20h52.13.621941 +0100,
7,0,7,0,9,0,9,0,221.99363349999476,,None,0,C,C,1,,,305,brown,2023-11-16_20h51.51.220,experiment,2023.2.2,60.070955814826206,2023-11-16 20h52.13.621941 +0100,
7,0,7,0,10,0,10,0,224.09168639998825,,['space'],1,C,C,1,[0.5464609000046039],[None],305,brown,2023-11-16_20h51.51.220,experiment,2023.2.2,60.070955814826206,2023-11-16 20h52.13.621941 +0100,
7,0,7,0,11,0,11,0,226.18992089999665,,None,1,T,C,1,,,305,brown,2023-11-16_20h51.51.220,experiment,2023.2.2,60.070955814826206,2023-11-16 20h52.13.621941 +0100,
7,0,7,0,,,,,,,,,,,,,,305,brown,2023-11-16_20h51.51.220,experiment,2023.2.2,60.070955814826206,2023-11-16 20h52.13.621941 +0100,
