trials_3.thisRepN,trials_3.thisTrialN,trials_3.thisN,trials_3.thisIndex,trials.thisRepN,trials.thisTrialN,trials.thisN,trials.thisIndex,thisRow.t,notes,key_resp_2.keys,key_resp_2.corr,key_resp_2.rt,key_resp_2.duration,letter.routineEndVal,nback.routineEndVal,type.routineEndVal,participant,session,date,expName,psychopyVersion,frameRate,expStart,
0,0,0,0,0,0,0,0,0.9383525000012014,,['space'],0,[0.1925694000092335],[None],N,,2,307,brown,2023-11-21_18h12.09.436,experiment,2023.2.2,59.89454966000111,2023-11-21 18h12.39.498030 +0100,
0,0,0,0,1,0,1,0,3.0363391999999294,,None,1,,,Q,,2,307,brown,2023-11-21_18h12.09.436,experiment,2023.2.2,59.89454966000111,2023-11-21 18h12.39.498030 +0100,
0,0,0,0,2,0,2,0,5.1346036000031745,,None,1,,,A,N,2,307,brown,2023-11-21_18h12.09.436,experiment,2023.2.2,59.89454966000111,2023-11-21 18h12.39.498030 +0100,
0,0,0,0,3,0,3,0,7.232944700008375,,None,1,,,I,Q,2,307,brown,2023-11-21_18h12.09.436,experiment,2023.2.2,59.89454966000111,2023-11-21 18h12.39.498030 +0100,
0,0,0,0,4,0,4,0,9.331375300011132,,['space'],1,[0.4513264999986859],[None],A,A,2,307,brown,2023-11-21_18h12.09.436,experiment,2023.2.2,59.89454966000111,2023-11-21 18h12.39.498030 +0100,
0,0,0,0,5,0,5,0,11.429628300000331,,None,1,,,Z,I,2,307,brown,2023-11-21_18h12.09.436,experiment,2023.2.2,59.89454966000111,2023-11-21 18h12.39.498030 +0100,
0,0,0,0,6,0,6,0,13.527747200001613,,None,1,,,Z,A,2,307,brown,2023-11-21_18h12.09.436,experiment,2023.2.2,59.89454966000111,2023-11-21 18h12.39.498030 +0100,
0,0,0,0,7,0,7,0,15.626197900011903,,None,1,,,T,Z,2,307,brown,2023-11-21_18h12.09.436,experiment,2023.2.2,59.89454966000111,2023-11-21 18h12.39.498030 +0100,
0,0,0,0,8,0,8,0,17.72430539999914,,['space'],1,[0.6091071999981068],[None],Z,Z,2,307,brown,2023-11-21_18h12.09.436,experiment,2023.2.2,59.89454966000111,2023-11-21 18h12.39.498030 +0100,
0,0,0,0,9,0,9,0,19.822639000005438,,None,1,,,F,T,2,307,brown,2023-11-21_18h12.09.436,experiment,2023.2.2,59.89454966000111,2023-11-21 18h12.39.498030 +0100,
0,0,0,0,10,0,10,0,21.920815400007996,,['space'],1,[0.524245399996289],[None],Z,Z,2,307,brown,2023-11-21_18h12.09.436,experiment,2023.2.2,59.89454966000111,2023-11-21 18h12.39.498030 +0100,
0,0,0,0,11,0,11,0,24.019336500001373,,['space'],1,[0.494839699997101],[None],F,F,2,307,brown,2023-11-21_18h12.09.436,experiment,2023.2.2,59.89454966000111,2023-11-21 18h12.39.498030 +0100,
0,0,0,0,,,,,,,,,,,,,,307,brown,2023-11-21_18h12.09.436,experiment,2023.2.2,59.89454966000111,2023-11-21 18h12.39.498030 +0100,
1,0,1,0,0,0,0,0,26.916799500002526,,None,1,,,B,,2,307,brown,2023-11-21_18h12.09.436,experiment,2023.2.2,59.89454966000111,2023-11-21 18h12.39.498030 +0100,
1,0,1,0,1,0,1,0,29.01519580000604,,None,1,,,F,,2,307,brown,2023-11-21_18h12.09.436,experiment,2023.2.2,59.89454966000111,2023-11-21 18h12.39.498030 +0100,
1,0,1,0,2,0,2,0,31.11345160000201,,None,1,,,G,B,2,307,brown,2023-11-21_18h12.09.436,experiment,2023.2.2,59.89454966000111,2023-11-21 18h12.39.498030 +0100,
1,0,1,0,3,0,3,0,33.21161650000431,,['space'],1,[0.4444915000058245],[None],F,F,2,307,brown,2023-11-21_18h12.09.436,experiment,2023.2.2,59.89454966000111,2023-11-21 18h12.39.498030 +0100,
1,0,1,0,4,0,4,0,35.309880900007556,,None,1,,,Z,G,2,307,brown,2023-11-21_18h12.09.436,experiment,2023.2.2,59.89454966000111,2023-11-21 18h12.39.498030 +0100,
1,0,1,0,5,0,5,0,37.408069400000386,,['space'],1,[0.764696800004458],[None],F,F,2,307,brown,2023-11-21_18h12.09.436,experiment,2023.2.2,59.89454966000111,2023-11-21 18h12.39.498030 +0100,
1,0,1,0,6,0,6,0,39.506332200006,,None,1,,,R,Z,2,307,brown,2023-11-21_18h12.09.436,experiment,2023.2.2,59.89454966000111,2023-11-21 18h12.39.498030 +0100,
1,0,1,0,7,0,7,0,41.604645600004005,,None,1,,,X,F,2,307,brown,2023-11-21_18h12.09.436,experiment,2023.2.2,59.89454966000111,2023-11-21 18h12.39.498030 +0100,
1,0,1,0,8,0,8,0,43.70308930000465,,None,1,,,O,R,2,307,brown,2023-11-21_18h12.09.436,experiment,2023.2.2,59.89454966000111,2023-11-21 18h12.39.498030 +0100,
1,0,1,0,9,0,9,0,45.80115430000296,,None,1,,,I,X,2,307,brown,2023-11-21_18h12.09.436,experiment,2023.2.2,59.89454966000111,2023-11-21 18h12.39.498030 +0100,
1,0,1,0,10,0,10,0,47.89944870000181,,['space'],1,[0.4228819999989355],[None],O,O,2,307,brown,2023-11-21_18h12.09.436,experiment,2023.2.2,59.89454966000111,2023-11-21 18h12.39.498030 +0100,
1,0,1,0,11,0,11,0,49.997778100005235,,None,1,,,E,I,2,307,brown,2023-11-21_18h12.09.436,experiment,2023.2.2,59.89454966000111,2023-11-21 18h12.39.498030 +0100,
1,0,1,0,,,,,,,,,,,,,,307,brown,2023-11-21_18h12.09.436,experiment,2023.2.2,59.89454966000111,2023-11-21 18h12.39.498030 +0100,
2,0,2,0,0,0,0,0,52.762081400011084,,None,1,,,Q,,1,307,brown,2023-11-21_18h12.09.436,experiment,2023.2.2,59.89454966000111,2023-11-21 18h12.39.498030 +0100,
2,0,2,0,1,0,1,0,54.86061590000463,,['space'],1,[0.5125255000020843],[None],Q,Q,1,307,brown,2023-11-21_18h12.09.436,experiment,2023.2.2,59.89454966000111,2023-11-21 18h12.39.498030 +0100,
2,0,2,0,2,0,2,0,56.958617800002685,,None,1,,,F,Q,1,307,brown,2023-11-21_18h12.09.436,experiment,2023.2.2,59.89454966000111,2023-11-21 18h12.39.498030 +0100,
2,0,2,0,3,0,3,0,59.05694220001169,,['space'],1,[0.8753727000002982],[None],F,F,1,307,brown,2023-11-21_18h12.09.436,experiment,2023.2.2,59.89454966000111,2023-11-21 18h12.39.498030 +0100,
2,0,2,0,4,0,4,0,61.155169600009685,,None,1,,,C,F,1,307,brown,2023-11-21_18h12.09.436,experiment,2023.2.2,59.89454966000111,2023-11-21 18h12.39.498030 +0100,
2,0,2,0,5,0,5,0,63.25349690001167,,None,1,,,R,C,1,307,brown,2023-11-21_18h12.09.436,experiment,2023.2.2,59.89454966000111,2023-11-21 18h12.39.498030 +0100,
2,0,2,0,6,0,6,0,65.35196450000512,,None,1,,,X,R,1,307,brown,2023-11-21_18h12.09.436,experiment,2023.2.2,59.89454966000111,2023-11-21 18h12.39.498030 +0100,
2,0,2,0,7,0,7,0,67.45013960001233,,None,1,,,Y,X,1,307,brown,2023-11-21_18h12.09.436,experiment,2023.2.2,59.89454966000111,2023-11-21 18h12.39.498030 +0100,
2,0,2,0,8,0,8,0,69.54829679999966,,None,1,,,F,Y,1,307,brown,2023-11-21_18h12.09.436,experiment,2023.2.2,59.89454966000111,2023-11-21 18h12.39.498030 +0100,
2,0,2,0,9,0,9,0,71.64669030001096,,['space'],1,[0.5346732000034535],[None],F,F,1,307,brown,2023-11-21_18h12.09.436,experiment,2023.2.2,59.89454966000111,2023-11-21 18h12.39.498030 +0100,
2,0,2,0,10,0,10,0,73.74486250001064,,['space'],1,[0.5965131999982987],[None],F,F,1,307,brown,2023-11-21_18h12.09.436,experiment,2023.2.2,59.89454966000111,2023-11-21 18h12.39.498030 +0100,
2,0,2,0,11,0,11,0,75.84313629999815,,['space'],1,[0.6233186999888858],[None],F,F,1,307,brown,2023-11-21_18h12.09.436,experiment,2023.2.2,59.89454966000111,2023-11-21 18h12.39.498030 +0100,
2,0,2,0,,,,,,,,,,,,,,307,brown,2023-11-21_18h12.09.436,experiment,2023.2.2,59.89454966000111,2023-11-21 18h12.39.498030 +0100,
3,0,3,0,0,0,0,0,83.76983710000059,,None,1,,,S,,1,307,brown,2023-11-21_18h12.09.436,experiment,2023.2.2,59.89454966000111,2023-11-21 18h12.39.498030 +0100,
3,0,3,0,1,0,1,0,85.8683263999992,,['space'],1,[0.47750389999418985],[None],S,S,1,307,brown,2023-11-21_18h12.09.436,experiment,2023.2.2,59.89454966000111,2023-11-21 18h12.39.498030 +0100,
3,0,3,0,2,0,2,0,87.9666040000011,,None,1,,,X,S,1,307,brown,2023-11-21_18h12.09.436,experiment,2023.2.2,59.89454966000111,2023-11-21 18h12.39.498030 +0100,
3,0,3,0,3,0,3,0,90.06474909999815,,None,1,,,V,X,1,307,brown,2023-11-21_18h12.09.436,experiment,2023.2.2,59.89454966000111,2023-11-21 18h12.39.498030 +0100,
3,0,3,0,4,0,4,0,92.16303940000944,,['space'],1,[0.4613561000005575],[None],V,V,1,307,brown,2023-11-21_18h12.09.436,experiment,2023.2.2,59.89454966000111,2023-11-21 18h12.39.498030 +0100,
3,0,3,0,5,0,5,0,94.26134950001142,,['space'],1,[0.6314598000026308],[None],V,V,1,307,brown,2023-11-21_18h12.09.436,experiment,2023.2.2,59.89454966000111,2023-11-21 18h12.39.498030 +0100,
3,0,3,0,6,0,6,0,96.35980710000149,,None,1,,,E,V,1,307,brown,2023-11-21_18h12.09.436,experiment,2023.2.2,59.89454966000111,2023-11-21 18h12.39.498030 +0100,
3,0,3,0,7,0,7,0,98.45798900000227,,None,1,,,Z,E,1,307,brown,2023-11-21_18h12.09.436,experiment,2023.2.2,59.89454966000111,2023-11-21 18h12.39.498030 +0100,
3,0,3,0,8,0,8,0,100.55619870001101,,None,1,,,P,Z,1,307,brown,2023-11-21_18h12.09.436,experiment,2023.2.2,59.89454966000111,2023-11-21 18h12.39.498030 +0100,
3,0,3,0,9,0,9,0,102.65448530000867,,['space'],1,[0.47828140000638086],[None],P,P,1,307,brown,2023-11-21_18h12.09.436,experiment,2023.2.2,59.89454966000111,2023-11-21 18h12.39.498030 +0100,
3,0,3,0,10,0,10,0,104.75271860000794,,None,1,,,Y,P,1,307,brown,2023-11-21_18h12.09.436,experiment,2023.2.2,59.89454966000111,2023-11-21 18h12.39.498030 +0100,
3,0,3,0,11,0,11,0,106.85097800000221,,['space'],1,[0.4931127000018023],[None],Y,Y,1,307,brown,2023-11-21_18h12.09.436,experiment,2023.2.2,59.89454966000111,2023-11-21 18h12.39.498030 +0100,
3,0,3,0,,,,,,,,,,,,,,307,brown,2023-11-21_18h12.09.436,experiment,2023.2.2,59.89454966000111,2023-11-21 18h12.39.498030 +0100,
4,0,4,0,0,0,0,0,109.6987483999983,,None,1,,,D,,1,307,brown,2023-11-21_18h12.09.436,experiment,2023.2.2,59.89454966000111,2023-11-21 18h12.39.498030 +0100,
4,0,4,0,1,0,1,0,111.79689990000043,,['space'],1,[0.5414937000023201],[None],D,D,1,307,brown,2023-11-21_18h12.09.436,experiment,2023.2.2,59.89454966000111,2023-11-21 18h12.39.498030 +0100,
4,0,4,0,2,0,2,0,113.89514140000392,,['space'],1,[0.46511809999356046],[None],D,D,1,307,brown,2023-11-21_18h12.09.436,experiment,2023.2.2,59.89454966000111,2023-11-21 18h12.39.498030 +0100,
4,0,4,0,3,0,3,0,115.99332380000851,,None,1,,,V,D,1,307,brown,2023-11-21_18h12.09.436,experiment,2023.2.2,59.89454966000111,2023-11-21 18h12.39.498030 +0100,
4,0,4,0,4,0,4,0,118.0918706000084,,['space'],1,[0.4289561999903526],[None],V,V,1,307,brown,2023-11-21_18h12.09.436,experiment,2023.2.2,59.89454966000111,2023-11-21 18h12.39.498030 +0100,
4,0,4,0,5,0,5,0,120.19003490000614,,['space'],1,[0.48037579999072477],[None],V,V,1,307,brown,2023-11-21_18h12.09.436,experiment,2023.2.2,59.89454966000111,2023-11-21 18h12.39.498030 +0100,
4,0,4,0,6,0,6,0,122.28835020000406,,None,1,,,R,V,1,307,brown,2023-11-21_18h12.09.436,experiment,2023.2.2,59.89454966000111,2023-11-21 18h12.39.498030 +0100,
4,0,4,0,7,0,7,0,124.38663240001188,,None,1,,,N,R,1,307,brown,2023-11-21_18h12.09.436,experiment,2023.2.2,59.89454966000111,2023-11-21 18h12.39.498030 +0100,
4,0,4,0,8,0,8,0,126.48459269999876,,None,1,,,U,N,1,307,brown,2023-11-21_18h12.09.436,experiment,2023.2.2,59.89454966000111,2023-11-21 18h12.39.498030 +0100,
4,0,4,0,9,0,9,0,128.58299180000904,,['space'],1,[0.5160174000047846],[None],U,U,1,307,brown,2023-11-21_18h12.09.436,experiment,2023.2.2,59.89454966000111,2023-11-21 18h12.39.498030 +0100,
4,0,4,0,10,0,10,0,130.68120550000458,,None,1,,,H,U,1,307,brown,2023-11-21_18h12.09.436,experiment,2023.2.2,59.89454966000111,2023-11-21 18h12.39.498030 +0100,
4,0,4,0,11,0,11,0,132.7798225000006,,None,1,,,V,H,1,307,brown,2023-11-21_18h12.09.436,experiment,2023.2.2,59.89454966000111,2023-11-21 18h12.39.498030 +0100,
4,0,4,0,,,,,,,,,,,,,,307,brown,2023-11-21_18h12.09.436,experiment,2023.2.2,59.89454966000111,2023-11-21 18h12.39.498030 +0100,
5,0,5,0,0,0,0,0,135.61084610001126,,None,1,,,E,,2,307,brown,2023-11-21_18h12.09.436,experiment,2023.2.2,59.89454966000111,2023-11-21 18h12.39.498030 +0100,
5,0,5,0,1,0,1,0,137.70913360000122,,None,1,,,S,,2,307,brown,2023-11-21_18h12.09.436,experiment,2023.2.2,59.89454966000111,2023-11-21 18h12.39.498030 +0100,
5,0,5,0,2,0,2,0,139.807286700001,,None,1,,,P,E,2,307,brown,2023-11-21_18h12.09.436,experiment,2023.2.2,59.89454966000111,2023-11-21 18h12.39.498030 +0100,
5,0,5,0,3,0,3,0,141.90530800000124,,['space'],1,[0.5493101000029128],[None],S,S,2,307,brown,2023-11-21_18h12.09.436,experiment,2023.2.2,59.89454966000111,2023-11-21 18h12.39.498030 +0100,
5,0,5,0,4,0,4,0,144.00367750000441,,None,1,,,B,P,2,307,brown,2023-11-21_18h12.09.436,experiment,2023.2.2,59.89454966000111,2023-11-21 18h12.39.498030 +0100,
5,0,5,0,5,0,5,0,146.1019559999986,,['space'],1,[0.460880000013276],[None],S,S,2,307,brown,2023-11-21_18h12.09.436,experiment,2023.2.2,59.89454966000111,2023-11-21 18h12.39.498030 +0100,
5,0,5,0,6,0,6,0,148.20044710001093,,['space'],1,[0.45515349999186583],[None],B,B,2,307,brown,2023-11-21_18h12.09.436,experiment,2023.2.2,59.89454966000111,2023-11-21 18h12.39.498030 +0100,
5,0,5,0,7,0,7,0,150.29820570000447,,['space'],1,[0.5055696999916108],[None],S,S,2,307,brown,2023-11-21_18h12.09.436,experiment,2023.2.2,59.89454966000111,2023-11-21 18h12.39.498030 +0100,
5,0,5,0,8,0,8,0,152.39686520000396,,None,1,,,E,B,2,307,brown,2023-11-21_18h12.09.436,experiment,2023.2.2,59.89454966000111,2023-11-21 18h12.39.498030 +0100,
5,0,5,0,9,0,9,0,154.49529060001078,,['space'],1,[0.5342139999993378],[None],S,S,2,307,brown,2023-11-21_18h12.09.436,experiment,2023.2.2,59.89454966000111,2023-11-21 18h12.39.498030 +0100,
5,0,5,0,10,0,10,0,156.59331520000705,,None,1,,,V,E,2,307,brown,2023-11-21_18h12.09.436,experiment,2023.2.2,59.89454966000111,2023-11-21 18h12.39.498030 +0100,
5,0,5,0,11,0,11,0,158.6916065000114,,None,0,,,S,S,2,307,brown,2023-11-21_18h12.09.436,experiment,2023.2.2,59.89454966000111,2023-11-21 18h12.39.498030 +0100,
5,0,5,0,,,,,,,,,,,,,,307,brown,2023-11-21_18h12.09.436,experiment,2023.2.2,59.89454966000111,2023-11-21 18h12.39.498030 +0100,
6,0,6,0,0,0,0,0,161.50627760001225,,None,1,,,M,,1,307,brown,2023-11-21_18h12.09.436,experiment,2023.2.2,59.89454966000111,2023-11-21 18h12.39.498030 +0100,
6,0,6,0,1,0,1,0,163.60429339999973,,['space'],1,[0.561068900002283],[None],M,M,1,307,brown,2023-11-21_18h12.09.436,experiment,2023.2.2,59.89454966000111,2023-11-21 18h12.39.498030 +0100,
6,0,6,0,2,0,2,0,165.70251500001177,,None,1,,,H,M,1,307,brown,2023-11-21_18h12.09.436,experiment,2023.2.2,59.89454966000111,2023-11-21 18h12.39.498030 +0100,
6,0,6,0,3,0,3,0,167.80082180000318,,None,1,,,Y,H,1,307,brown,2023-11-21_18h12.09.436,experiment,2023.2.2,59.89454966000111,2023-11-21 18h12.39.498030 +0100,
6,0,6,0,4,0,4,0,169.89920850000635,,['space'],1,[0.5802047000033781],[None],Y,Y,1,307,brown,2023-11-21_18h12.09.436,experiment,2023.2.2,59.89454966000111,2023-11-21 18h12.39.498030 +0100,
6,0,6,0,5,0,5,0,171.99736610001128,,['space'],1,[0.5655203999922378],[None],Y,Y,1,307,brown,2023-11-21_18h12.09.436,experiment,2023.2.2,59.89454966000111,2023-11-21 18h12.39.498030 +0100,
6,0,6,0,6,0,6,0,174.0955748999986,,None,1,,,E,Y,1,307,brown,2023-11-21_18h12.09.436,experiment,2023.2.2,59.89454966000111,2023-11-21 18h12.39.498030 +0100,
6,0,6,0,7,0,7,0,176.1940528999985,,None,1,,,Q,E,1,307,brown,2023-11-21_18h12.09.436,experiment,2023.2.2,59.89454966000111,2023-11-21 18h12.39.498030 +0100,
6,0,6,0,8,0,8,0,178.29219469999953,,['space'],1,[0.4528223999950569],[None],Q,Q,1,307,brown,2023-11-21_18h12.09.436,experiment,2023.2.2,59.89454966000111,2023-11-21 18h12.39.498030 +0100,
6,0,6,0,9,0,9,0,180.39037449999887,,None,1,,,J,Q,1,307,brown,2023-11-21_18h12.09.436,experiment,2023.2.2,59.89454966000111,2023-11-21 18h12.39.498030 +0100,
6,0,6,0,10,0,10,0,182.48865970000043,,['space'],1,[0.4357562999939546],[None],J,J,1,307,brown,2023-11-21_18h12.09.436,experiment,2023.2.2,59.89454966000111,2023-11-21 18h12.39.498030 +0100,
6,0,6,0,11,0,11,0,184.58709780000208,,None,1,,,H,J,1,307,brown,2023-11-21_18h12.09.436,experiment,2023.2.2,59.89454966000111,2023-11-21 18h12.39.498030 +0100,
6,0,6,0,,,,,,,,,,,,,,307,brown,2023-11-21_18h12.09.436,experiment,2023.2.2,59.89454966000111,2023-11-21 18h12.39.498030 +0100,
7,0,7,0,0,0,0,0,187.40151029999834,,None,1,,,M,,2,307,brown,2023-11-21_18h12.09.436,experiment,2023.2.2,59.89454966000111,2023-11-21 18h12.39.498030 +0100,
7,0,7,0,1,0,1,0,189.49961050000275,,None,1,,,T,,2,307,brown,2023-11-21_18h12.09.436,experiment,2023.2.2,59.89454966000111,2023-11-21 18h12.39.498030 +0100,
7,0,7,0,2,0,2,0,191.59783040000184,,['space'],1,[0.44217479998769704],[None],M,M,2,307,brown,2023-11-21_18h12.09.436,experiment,2023.2.2,59.89454966000111,2023-11-21 18h12.39.498030 +0100,
7,0,7,0,3,0,3,0,193.69614739999815,,None,1,,,P,T,2,307,brown,2023-11-21_18h12.09.436,experiment,2023.2.2,59.89454966000111,2023-11-21 18h12.39.498030 +0100,
7,0,7,0,4,0,4,0,195.79440080000495,,None,1,,,E,M,2,307,brown,2023-11-21_18h12.09.436,experiment,2023.2.2,59.89454966000111,2023-11-21 18h12.39.498030 +0100,
7,0,7,0,5,0,5,0,197.8927701000066,,None,1,,,A,P,2,307,brown,2023-11-21_18h12.09.436,experiment,2023.2.2,59.89454966000111,2023-11-21 18h12.39.498030 +0100,
7,0,7,0,6,0,6,0,199.99095859999943,,None,1,,,C,E,2,307,brown,2023-11-21_18h12.09.436,experiment,2023.2.2,59.89454966000111,2023-11-21 18h12.39.498030 +0100,
7,0,7,0,7,0,7,0,202.08928350001224,,['space'],1,[0.4381831999926362],[None],A,A,2,307,brown,2023-11-21_18h12.09.436,experiment,2023.2.2,59.89454966000111,2023-11-21 18h12.39.498030 +0100,
7,0,7,0,8,0,8,0,204.18743720000202,,None,1,,,N,C,2,307,brown,2023-11-21_18h12.09.436,experiment,2023.2.2,59.89454966000111,2023-11-21 18h12.39.498030 +0100,
7,0,7,0,9,0,9,0,206.28559530001075,,None,1,,,W,A,2,307,brown,2023-11-21_18h12.09.436,experiment,2023.2.2,59.89454966000111,2023-11-21 18h12.39.498030 +0100,
7,0,7,0,10,0,10,0,208.38401120000344,,None,1,,,B,N,2,307,brown,2023-11-21_18h12.09.436,experiment,2023.2.2,59.89454966000111,2023-11-21 18h12.39.498030 +0100,
7,0,7,0,11,0,11,0,210.48234500001126,,None,1,,,L,W,2,307,brown,2023-11-21_18h12.09.436,experiment,2023.2.2,59.89454966000111,2023-11-21 18h12.39.498030 +0100,
7,0,7,0,,,,,,,,,,,,,,307,brown,2023-11-21_18h12.09.436,experiment,2023.2.2,59.89454966000111,2023-11-21 18h12.39.498030 +0100,
