trials_3.thisRepN,trials_3.thisTrialN,trials_3.thisN,trials_3.thisIndex,trials.thisRepN,trials.thisTrialN,trials.thisN,trials.thisIndex,thisRow.t,notes,key_resp_2.keys,key_resp_2.corr,letter.routineEndVal,nback.routineEndVal,type.routineEndVal,key_resp_2.rt,key_resp_2.duration,participant,session,date,expName,psychopyVersion,frameRate,expStart,
0,0,0,0,0,0,0,0,1.1535458330035908,,None,1,K,,2,,,103,brown,2023-11-05_20h14.27.259,experiment,2023.2.2,None,2023-11-05 20h14.34.973846 +0100,
0,0,0,0,1,0,1,0,3.2485037920050672,,None,1,M,,2,,,103,brown,2023-11-05_20h14.27.259,experiment,2023.2.2,None,2023-11-05 20h14.34.973846 +0100,
0,0,0,0,2,0,2,0,5.31659337500605,,None,1,N,K,2,,,103,brown,2023-11-05_20h14.27.259,experiment,2023.2.2,None,2023-11-05 20h14.34.973846 +0100,
0,0,0,0,3,0,3,0,7.400009208002302,,None,1,F,M,2,,,103,brown,2023-11-05_20h14.27.259,experiment,2023.2.2,None,2023-11-05 20h14.34.973846 +0100,
0,0,0,0,4,0,4,0,9.489905417001864,,['space'],1,N,N,2,[1.1708545000001322],[None],103,brown,2023-11-05_20h14.27.259,experiment,2023.2.2,None,2023-11-05 20h14.34.973846 +0100,
0,0,0,0,5,0,5,0,11.573199750004278,,['space'],1,F,F,2,[0.8039997090018005],[None],103,brown,2023-11-05_20h14.27.259,experiment,2023.2.2,None,2023-11-05 20h14.34.973846 +0100,
0,0,0,0,6,0,6,0,13.658398083003704,,None,1,I,N,2,,,103,brown,2023-11-05_20h14.27.259,experiment,2023.2.2,None,2023-11-05 20h14.34.973846 +0100,
0,0,0,0,7,0,7,0,15.742883375001838,,['space'],1,F,F,2,[1.2108257090003463],[None],103,brown,2023-11-05_20h14.27.259,experiment,2023.2.2,None,2023-11-05 20h14.34.973846 +0100,
0,0,0,0,8,0,8,0,17.828216042005806,,None,1,L,I,2,,,103,brown,2023-11-05_20h14.27.259,experiment,2023.2.2,None,2023-11-05 20h14.34.973846 +0100,
0,0,0,0,9,0,9,0,19.936085332999937,,None,1,Z,F,2,,,103,brown,2023-11-05_20h14.27.259,experiment,2023.2.2,None,2023-11-05 20h14.34.973846 +0100,
0,0,0,0,10,0,10,0,22.010758667005575,,None,0,L,L,2,,,103,brown,2023-11-05_20h14.27.259,experiment,2023.2.2,None,2023-11-05 20h14.34.973846 +0100,
0,0,0,0,11,0,11,0,24.097049875002995,,['space'],1,Z,Z,2,[1.1250857499981066],[None],103,brown,2023-11-05_20h14.27.259,experiment,2023.2.2,None,2023-11-05 20h14.34.973846 +0100,
0,0,0,0,,,,,,,,,,,,,,103,brown,2023-11-05_20h14.27.259,experiment,2023.2.2,None,2023-11-05 20h14.34.973846 +0100,
1,0,1,0,0,0,0,0,26.867704458003573,,None,1,L,,1,,,103,brown,2023-11-05_20h14.27.259,experiment,2023.2.2,None,2023-11-05 20h14.34.973846 +0100,
1,0,1,0,1,0,1,0,28.958619249999174,,None,1,A,L,1,,,103,brown,2023-11-05_20h14.27.259,experiment,2023.2.2,None,2023-11-05 20h14.34.973846 +0100,
1,0,1,0,2,0,2,0,31.045497417006118,,None,1,Q,A,1,,,103,brown,2023-11-05_20h14.27.259,experiment,2023.2.2,None,2023-11-05 20h14.34.973846 +0100,
1,0,1,0,3,0,3,0,33.128815957999905,,None,1,O,Q,1,,,103,brown,2023-11-05_20h14.27.259,experiment,2023.2.2,None,2023-11-05 20h14.34.973846 +0100,
1,0,1,0,4,0,4,0,35.21681812500174,,None,1,T,O,1,,,103,brown,2023-11-05_20h14.27.259,experiment,2023.2.2,None,2023-11-05 20h14.34.973846 +0100,
1,0,1,0,5,0,5,0,37.300165083004686,,None,1,W,T,1,,,103,brown,2023-11-05_20h14.27.259,experiment,2023.2.2,None,2023-11-05 20h14.34.973846 +0100,
1,0,1,0,6,0,6,0,39.38360662500054,,None,1,E,W,1,,,103,brown,2023-11-05_20h14.27.259,experiment,2023.2.2,None,2023-11-05 20h14.34.973846 +0100,
1,0,1,0,7,0,7,0,41.47217387500132,,None,1,M,E,1,,,103,brown,2023-11-05_20h14.27.259,experiment,2023.2.2,None,2023-11-05 20h14.34.973846 +0100,
1,0,1,0,8,0,8,0,43.5558864170016,,None,1,Q,M,1,,,103,brown,2023-11-05_20h14.27.259,experiment,2023.2.2,None,2023-11-05 20h14.34.973846 +0100,
1,0,1,0,9,0,9,0,45.64021329200477,,None,1,P,Q,1,,,103,brown,2023-11-05_20h14.27.259,experiment,2023.2.2,None,2023-11-05 20h14.34.973846 +0100,
1,0,1,0,10,0,10,0,47.734734875004506,,None,1,M,P,1,,,103,brown,2023-11-05_20h14.27.259,experiment,2023.2.2,None,2023-11-05 20h14.34.973846 +0100,
1,0,1,0,11,0,11,0,49.817939874999865,,None,1,K,M,1,,,103,brown,2023-11-05_20h14.27.259,experiment,2023.2.2,None,2023-11-05 20h14.34.973846 +0100,
1,0,1,0,,,,,,,,,,,,,,103,brown,2023-11-05_20h14.27.259,experiment,2023.2.2,None,2023-11-05 20h14.34.973846 +0100,
2,0,2,0,0,0,0,0,52.44598670800042,,None,1,Z,,1,,,103,brown,2023-11-05_20h14.27.259,experiment,2023.2.2,None,2023-11-05 20h14.34.973846 +0100,
2,0,2,0,1,0,1,0,54.5262967919989,,None,1,A,Z,1,,,103,brown,2023-11-05_20h14.27.259,experiment,2023.2.2,None,2023-11-05 20h14.34.973846 +0100,
2,0,2,0,2,0,2,0,56.613794667006005,,None,1,F,A,1,,,103,brown,2023-11-05_20h14.27.259,experiment,2023.2.2,None,2023-11-05 20h14.34.973846 +0100,
2,0,2,0,3,0,3,0,58.71516891700594,,None,1,G,F,1,,,103,brown,2023-11-05_20h14.27.259,experiment,2023.2.2,None,2023-11-05 20h14.34.973846 +0100,
2,0,2,0,4,0,4,0,60.78047745799995,,None,1,N,G,1,,,103,brown,2023-11-05_20h14.27.259,experiment,2023.2.2,None,2023-11-05 20h14.34.973846 +0100,
2,0,2,0,5,0,5,0,62.863759833002405,,None,1,I,N,1,,,103,brown,2023-11-05_20h14.27.259,experiment,2023.2.2,None,2023-11-05 20h14.34.973846 +0100,
2,0,2,0,6,0,6,0,64.9508093330005,,None,1,H,I,1,,,103,brown,2023-11-05_20h14.27.259,experiment,2023.2.2,None,2023-11-05 20h14.34.973846 +0100,
2,0,2,0,7,0,7,0,67.03464333300508,,None,1,G,H,1,,,103,brown,2023-11-05_20h14.27.259,experiment,2023.2.2,None,2023-11-05 20h14.34.973846 +0100,
2,0,2,0,8,0,8,0,69.11843916700309,,None,1,I,G,1,,,103,brown,2023-11-05_20h14.27.259,experiment,2023.2.2,None,2023-11-05 20h14.34.973846 +0100,
2,0,2,0,9,0,9,0,71.20614179200493,,None,1,V,I,1,,,103,brown,2023-11-05_20h14.27.259,experiment,2023.2.2,None,2023-11-05 20h14.34.973846 +0100,
2,0,2,0,10,0,10,0,73.30057300000044,,None,1,Z,V,1,,,103,brown,2023-11-05_20h14.27.259,experiment,2023.2.2,None,2023-11-05 20h14.34.973846 +0100,
2,0,2,0,11,0,11,0,75.38570220800466,,None,1,D,Z,1,,,103,brown,2023-11-05_20h14.27.259,experiment,2023.2.2,None,2023-11-05 20h14.34.973846 +0100,
2,0,2,0,,,,,,,,,,,,,,103,brown,2023-11-05_20h14.27.259,experiment,2023.2.2,None,2023-11-05 20h14.34.973846 +0100,
3,0,3,0,0,0,0,0,78.05281749999995,,None,1,F,,1,,,103,brown,2023-11-05_20h14.27.259,experiment,2023.2.2,None,2023-11-05 20h14.34.973846 +0100,
3,0,3,0,1,0,1,0,80.12745095800346,,None,1,V,F,1,,,103,brown,2023-11-05_20h14.27.259,experiment,2023.2.2,None,2023-11-05 20h14.34.973846 +0100,
3,0,3,0,2,0,2,0,82.21080637500563,,None,1,J,V,1,,,103,brown,2023-11-05_20h14.27.259,experiment,2023.2.2,None,2023-11-05 20h14.34.973846 +0100,
3,0,3,0,3,0,3,0,84.30443070800538,,None,1,B,J,1,,,103,brown,2023-11-05_20h14.27.259,experiment,2023.2.2,None,2023-11-05 20h14.34.973846 +0100,
3,0,3,0,4,0,4,0,86.39414387500437,,None,1,E,B,1,,,103,brown,2023-11-05_20h14.27.259,experiment,2023.2.2,None,2023-11-05 20h14.34.973846 +0100,
3,0,3,0,5,0,5,0,88.47621037500357,,None,1,P,E,1,,,103,brown,2023-11-05_20h14.27.259,experiment,2023.2.2,None,2023-11-05 20h14.34.973846 +0100,
3,0,3,0,6,0,6,0,90.5680207080004,,None,1,J,P,1,,,103,brown,2023-11-05_20h14.27.259,experiment,2023.2.2,None,2023-11-05 20h14.34.973846 +0100,
3,0,3,0,7,0,7,0,92.66963045800367,,None,1,S,J,1,,,103,brown,2023-11-05_20h14.27.259,experiment,2023.2.2,None,2023-11-05 20h14.34.973846 +0100,
3,0,3,0,8,0,8,0,94.74412504200154,,None,1,W,S,1,,,103,brown,2023-11-05_20h14.27.259,experiment,2023.2.2,None,2023-11-05 20h14.34.973846 +0100,
3,0,3,0,9,0,9,0,96.82124104200193,,None,1,H,W,1,,,103,brown,2023-11-05_20h14.27.259,experiment,2023.2.2,None,2023-11-05 20h14.34.973846 +0100,
3,0,3,0,10,0,10,0,98.91083050000452,,None,1,Y,H,1,,,103,brown,2023-11-05_20h14.27.259,experiment,2023.2.2,None,2023-11-05 20h14.34.973846 +0100,
3,0,3,0,11,0,11,0,100.99876595800015,,None,1,R,Y,1,,,103,brown,2023-11-05_20h14.27.259,experiment,2023.2.2,None,2023-11-05 20h14.34.973846 +0100,
3,0,3,0,,,,,,,,,,,,,,103,brown,2023-11-05_20h14.27.259,experiment,2023.2.2,None,2023-11-05 20h14.34.973846 +0100,
4,0,4,0,0,0,0,0,103.53808466700139,,None,1,Q,,1,,,103,brown,2023-11-05_20h14.27.259,experiment,2023.2.2,None,2023-11-05 20h14.34.973846 +0100,
4,0,4,0,1,0,1,0,105.61796479199984,,None,1,G,Q,1,,,103,brown,2023-11-05_20h14.27.259,experiment,2023.2.2,None,2023-11-05 20h14.34.973846 +0100,
4,0,4,0,2,0,2,0,107.71500604200264,,None,1,R,G,1,,,103,brown,2023-11-05_20h14.27.259,experiment,2023.2.2,None,2023-11-05 20h14.34.973846 +0100,
4,0,4,0,3,0,3,0,109.79842454200116,,None,1,T,R,1,,,103,brown,2023-11-05_20h14.27.259,experiment,2023.2.2,None,2023-11-05 20h14.34.973846 +0100,
4,0,4,0,4,0,4,0,111.87595525000506,,None,1,B,T,1,,,103,brown,2023-11-05_20h14.27.259,experiment,2023.2.2,None,2023-11-05 20h14.34.973846 +0100,
4,0,4,0,5,0,5,0,113.96607212500385,,None,1,X,B,1,,,103,brown,2023-11-05_20h14.27.259,experiment,2023.2.2,None,2023-11-05 20h14.34.973846 +0100,
4,0,4,0,6,0,6,0,116.05139254200185,,None,1,D,X,1,,,103,brown,2023-11-05_20h14.27.259,experiment,2023.2.2,None,2023-11-05 20h14.34.973846 +0100,
4,0,4,0,7,0,7,0,118.14282737499889,,None,1,T,D,1,,,103,brown,2023-11-05_20h14.27.259,experiment,2023.2.2,None,2023-11-05 20h14.34.973846 +0100,
4,0,4,0,8,0,8,0,120.22636687500199,,None,1,R,T,1,,,103,brown,2023-11-05_20h14.27.259,experiment,2023.2.2,None,2023-11-05 20h14.34.973846 +0100,
4,0,4,0,9,0,9,0,122.32268933299929,,None,1,B,R,1,,,103,brown,2023-11-05_20h14.27.259,experiment,2023.2.2,None,2023-11-05 20h14.34.973846 +0100,
4,0,4,0,10,0,10,0,124.41500654200354,,['space'],1,B,B,1,[0.6589028330054134],[None],103,brown,2023-11-05_20h14.27.259,experiment,2023.2.2,None,2023-11-05 20h14.34.973846 +0100,
4,0,4,0,11,0,11,0,126.49766108300537,,None,1,G,B,1,,,103,brown,2023-11-05_20h14.27.259,experiment,2023.2.2,None,2023-11-05 20h14.34.973846 +0100,
4,0,4,0,,,,,,,,,,,,,,103,brown,2023-11-05_20h14.27.259,experiment,2023.2.2,None,2023-11-05 20h14.34.973846 +0100,
5,0,5,0,0,0,0,0,129.0539128330056,,None,1,M,,2,,,103,brown,2023-11-05_20h14.27.259,experiment,2023.2.2,None,2023-11-05 20h14.34.973846 +0100,
5,0,5,0,1,0,1,0,131.13420274999953,,None,1,G,,2,,,103,brown,2023-11-05_20h14.27.259,experiment,2023.2.2,None,2023-11-05 20h14.34.973846 +0100,
5,0,5,0,2,0,2,0,133.22223691700492,,None,1,S,M,2,,,103,brown,2023-11-05_20h14.27.259,experiment,2023.2.2,None,2023-11-05 20h14.34.973846 +0100,
5,0,5,0,3,0,3,0,135.30553983300342,,None,1,X,G,2,,,103,brown,2023-11-05_20h14.27.259,experiment,2023.2.2,None,2023-11-05 20h14.34.973846 +0100,
5,0,5,0,4,0,4,0,137.38888033300464,,None,1,A,S,2,,,103,brown,2023-11-05_20h14.27.259,experiment,2023.2.2,None,2023-11-05 20h14.34.973846 +0100,
5,0,5,0,5,0,5,0,139.4755979170004,,None,1,C,X,2,,,103,brown,2023-11-05_20h14.27.259,experiment,2023.2.2,None,2023-11-05 20h14.34.973846 +0100,
5,0,5,0,6,0,6,0,141.56349095800397,,None,1,B,A,2,,,103,brown,2023-11-05_20h14.27.259,experiment,2023.2.2,None,2023-11-05 20h14.34.973846 +0100,
5,0,5,0,7,0,7,0,143.6466779580005,,None,1,E,C,2,,,103,brown,2023-11-05_20h14.27.259,experiment,2023.2.2,None,2023-11-05 20h14.34.973846 +0100,
5,0,5,0,8,0,8,0,145.75289516700286,,None,1,U,B,2,,,103,brown,2023-11-05_20h14.27.259,experiment,2023.2.2,None,2023-11-05 20h14.34.973846 +0100,
5,0,5,0,9,0,9,0,147.81860562500515,,None,1,P,E,2,,,103,brown,2023-11-05_20h14.27.259,experiment,2023.2.2,None,2023-11-05 20h14.34.973846 +0100,
5,0,5,0,10,0,10,0,149.90122383300331,,None,1,W,U,2,,,103,brown,2023-11-05_20h14.27.259,experiment,2023.2.2,None,2023-11-05 20h14.34.973846 +0100,
5,0,5,0,11,0,11,0,151.9983748750019,,None,1,Z,P,2,,,103,brown,2023-11-05_20h14.27.259,experiment,2023.2.2,None,2023-11-05 20h14.34.973846 +0100,
5,0,5,0,,,,,,,,,,,,,,103,brown,2023-11-05_20h14.27.259,experiment,2023.2.2,None,2023-11-05 20h14.34.973846 +0100,
6,0,6,0,0,0,0,0,154.6334214170056,,None,1,W,,2,,,103,brown,2023-11-05_20h14.27.259,experiment,2023.2.2,None,2023-11-05 20h14.34.973846 +0100,
6,0,6,0,1,0,1,0,156.7141964170005,,None,1,Q,,2,,,103,brown,2023-11-05_20h14.27.259,experiment,2023.2.2,None,2023-11-05 20h14.34.973846 +0100,
6,0,6,0,2,0,2,0,158.79769412500173,,None,1,A,W,2,,,103,brown,2023-11-05_20h14.27.259,experiment,2023.2.2,None,2023-11-05 20h14.34.973846 +0100,
6,0,6,0,3,0,3,0,160.8890192079998,,None,1,E,Q,2,,,103,brown,2023-11-05_20h14.27.259,experiment,2023.2.2,None,2023-11-05 20h14.34.973846 +0100,
6,0,6,0,4,0,4,0,162.97228070800338,,None,1,I,A,2,,,103,brown,2023-11-05_20h14.27.259,experiment,2023.2.2,None,2023-11-05 20h14.34.973846 +0100,
6,0,6,0,5,0,5,0,165.05598137500056,,None,1,U,E,2,,,103,brown,2023-11-05_20h14.27.259,experiment,2023.2.2,None,2023-11-05 20h14.34.973846 +0100,
6,0,6,0,6,0,6,0,167.14841254200292,,None,1,G,I,2,,,103,brown,2023-11-05_20h14.27.259,experiment,2023.2.2,None,2023-11-05 20h14.34.973846 +0100,
6,0,6,0,7,0,7,0,169.23896391699964,,None,1,J,U,2,,,103,brown,2023-11-05_20h14.27.259,experiment,2023.2.2,None,2023-11-05 20h14.34.973846 +0100,
6,0,6,0,8,0,8,0,171.3228567920014,,None,1,R,G,2,,,103,brown,2023-11-05_20h14.27.259,experiment,2023.2.2,None,2023-11-05 20h14.34.973846 +0100,
6,0,6,0,9,0,9,0,173.4151959170049,,None,1,U,J,2,,,103,brown,2023-11-05_20h14.27.259,experiment,2023.2.2,None,2023-11-05 20h14.34.973846 +0100,
6,0,6,0,10,0,10,0,175.49725233299978,,None,1,N,R,2,,,103,brown,2023-11-05_20h14.27.259,experiment,2023.2.2,None,2023-11-05 20h14.34.973846 +0100,
6,0,6,0,11,0,11,0,177.58896779200586,,None,1,I,U,2,,,103,brown,2023-11-05_20h14.27.259,experiment,2023.2.2,None,2023-11-05 20h14.34.973846 +0100,
6,0,6,0,,,,,,,,,,,,,,103,brown,2023-11-05_20h14.27.259,experiment,2023.2.2,None,2023-11-05 20h14.34.973846 +0100,
7,0,7,0,0,0,0,0,180.2405022919993,,None,1,V,,2,,,103,brown,2023-11-05_20h14.27.259,experiment,2023.2.2,None,2023-11-05 20h14.34.973846 +0100,
7,0,7,0,1,0,1,0,182.3056712079997,,None,1,L,,2,,,103,brown,2023-11-05_20h14.27.259,experiment,2023.2.2,None,2023-11-05 20h14.34.973846 +0100,
7,0,7,0,2,0,2,0,184.39846562500315,,None,1,J,V,2,,,103,brown,2023-11-05_20h14.27.259,experiment,2023.2.2,None,2023-11-05 20h14.34.973846 +0100,
7,0,7,0,3,0,3,0,186.4814711670042,,None,1,D,L,2,,,103,brown,2023-11-05_20h14.27.259,experiment,2023.2.2,None,2023-11-05 20h14.34.973846 +0100,
7,0,7,0,4,0,4,0,188.5723402500007,,None,1,K,J,2,,,103,brown,2023-11-05_20h14.27.259,experiment,2023.2.2,None,2023-11-05 20h14.34.973846 +0100,
7,0,7,0,5,0,5,0,190.6651308330038,,None,1,O,D,2,,,103,brown,2023-11-05_20h14.27.259,experiment,2023.2.2,None,2023-11-05 20h14.34.973846 +0100,
7,0,7,0,6,0,6,0,192.74696116700215,,None,1,F,K,2,,,103,brown,2023-11-05_20h14.27.259,experiment,2023.2.2,None,2023-11-05 20h14.34.973846 +0100,
7,0,7,0,7,0,7,0,194.8312060419994,,None,1,C,O,2,,,103,brown,2023-11-05_20h14.27.259,experiment,2023.2.2,None,2023-11-05 20h14.34.973846 +0100,
7,0,7,0,8,0,8,0,196.92238641700533,,None,1,H,F,2,,,103,brown,2023-11-05_20h14.27.259,experiment,2023.2.2,None,2023-11-05 20h14.34.973846 +0100,
7,0,7,0,9,0,9,0,199.00570325000444,,None,1,F,C,2,,,103,brown,2023-11-05_20h14.27.259,experiment,2023.2.2,None,2023-11-05 20h14.34.973846 +0100,
7,0,7,0,10,0,10,0,201.09852737500478,,None,1,K,H,2,,,103,brown,2023-11-05_20h14.27.259,experiment,2023.2.2,None,2023-11-05 20h14.34.973846 +0100,
7,0,7,0,11,0,11,0,203.1817880830058,,None,1,E,F,2,,,103,brown,2023-11-05_20h14.27.259,experiment,2023.2.2,None,2023-11-05 20h14.34.973846 +0100,
7,0,7,0,,,,,,,,,,,,,,103,brown,2023-11-05_20h14.27.259,experiment,2023.2.2,None,2023-11-05 20h14.34.973846 +0100,
