trials_3.thisRepN,trials_3.thisTrialN,trials_3.thisN,trials_3.thisIndex,trials.thisRepN,trials.thisTrialN,trials.thisN,trials.thisIndex,thisRow.t,notes,key_resp_2.keys,key_resp_2.corr,letter.routineEndVal,nback.routineEndVal,type.routineEndVal,key_resp_2.rt,key_resp_2.duration,participant,session,date,expName,psychopyVersion,frameRate,expStart,
0,0,0,0,0,0,0,0,3.063467166997725,,None,1,K,,2,,,105,silence,2023-11-07_13h52.38.388,experiment,2023.2.2,None,2023-11-07 13h52.49.122100 +0100,
0,0,0,0,1,0,1,0,5.150232624990167,,None,1,P,,2,,,105,silence,2023-11-07_13h52.38.388,experiment,2023.2.2,None,2023-11-07 13h52.49.122100 +0100,
0,0,0,0,2,0,2,0,7.234860208991449,,['space'],1,K,K,2,[0.8084917499945732],[None],105,silence,2023-11-07_13h52.38.388,experiment,2023.2.2,None,2023-11-07 13h52.49.122100 +0100,
0,0,0,0,3,0,3,0,9.324600166990422,,None,1,K,P,2,,,105,silence,2023-11-07_13h52.38.388,experiment,2023.2.2,None,2023-11-07 13h52.49.122100 +0100,
0,0,0,0,4,0,4,0,11.410420333995717,,['space'],1,K,K,2,[0.46670750000339467],[None],105,silence,2023-11-07_13h52.38.388,experiment,2023.2.2,None,2023-11-07 13h52.49.122100 +0100,
0,0,0,0,5,0,5,0,13.501495249991422,,None,1,Q,K,2,,,105,silence,2023-11-07_13h52.38.388,experiment,2023.2.2,None,2023-11-07 13h52.49.122100 +0100,
0,0,0,0,6,0,6,0,15.585171708997223,,None,1,G,K,2,,,105,silence,2023-11-07_13h52.38.388,experiment,2023.2.2,None,2023-11-07 13h52.49.122100 +0100,
0,0,0,0,7,0,7,0,17.678267999988748,,['space'],1,Q,Q,2,[0.5846614170004614],[None],105,silence,2023-11-07_13h52.38.388,experiment,2023.2.2,None,2023-11-07 13h52.49.122100 +0100,
0,0,0,0,8,0,8,0,19.772467749993666,,None,1,Y,G,2,,,105,silence,2023-11-07_13h52.38.388,experiment,2023.2.2,None,2023-11-07 13h52.49.122100 +0100,
0,0,0,0,9,0,9,0,21.86233145899314,,None,0,Q,Q,2,,,105,silence,2023-11-07_13h52.38.388,experiment,2023.2.2,None,2023-11-07 13h52.49.122100 +0100,
0,0,0,0,10,0,10,0,23.940421208986663,,None,1,P,Y,2,,,105,silence,2023-11-07_13h52.38.388,experiment,2023.2.2,None,2023-11-07 13h52.49.122100 +0100,
0,0,0,0,11,0,11,0,26.027734584000427,,None,1,Y,Q,2,,,105,silence,2023-11-07_13h52.38.388,experiment,2023.2.2,None,2023-11-07 13h52.49.122100 +0100,
0,0,0,0,,,,,,,,,,,,,,105,silence,2023-11-07_13h52.38.388,experiment,2023.2.2,None,2023-11-07 13h52.49.122100 +0100,
1,0,1,0,0,0,0,0,29.750962749996688,,None,1,P,,2,,,105,silence,2023-11-07_13h52.38.388,experiment,2023.2.2,None,2023-11-07 13h52.49.122100 +0100,
1,0,1,0,1,0,1,0,31.83468504199118,,None,1,I,,2,,,105,silence,2023-11-07_13h52.38.388,experiment,2023.2.2,None,2023-11-07 13h52.49.122100 +0100,
1,0,1,0,2,0,2,0,33.93737145898922,,None,1,Z,P,2,,,105,silence,2023-11-07_13h52.38.388,experiment,2023.2.2,None,2023-11-07 13h52.49.122100 +0100,
1,0,1,0,3,0,3,0,36.02080516699061,,None,1,F,I,2,,,105,silence,2023-11-07_13h52.38.388,experiment,2023.2.2,None,2023-11-07 13h52.49.122100 +0100,
1,0,1,0,4,0,4,0,38.089765500000794,,None,1,T,Z,2,,,105,silence,2023-11-07_13h52.38.388,experiment,2023.2.2,None,2023-11-07 13h52.49.122100 +0100,
1,0,1,0,5,0,5,0,40.19579329199041,,None,1,S,F,2,,,105,silence,2023-11-07_13h52.38.388,experiment,2023.2.2,None,2023-11-07 13h52.49.122100 +0100,
1,0,1,0,6,0,6,0,42.287477666992345,,None,1,J,T,2,,,105,silence,2023-11-07_13h52.38.388,experiment,2023.2.2,None,2023-11-07 13h52.49.122100 +0100,
1,0,1,0,7,0,7,0,44.35622587498801,,None,1,U,S,2,,,105,silence,2023-11-07_13h52.38.388,experiment,2023.2.2,None,2023-11-07 13h52.49.122100 +0100,
1,0,1,0,8,0,8,0,46.45448991699959,,None,1,W,J,2,,,105,silence,2023-11-07_13h52.38.388,experiment,2023.2.2,None,2023-11-07 13h52.49.122100 +0100,
1,0,1,0,9,0,9,0,48.535901791998185,,None,1,I,U,2,,,105,silence,2023-11-07_13h52.38.388,experiment,2023.2.2,None,2023-11-07 13h52.49.122100 +0100,
1,0,1,0,10,0,10,0,50.62239187498926,,None,1,B,W,2,,,105,silence,2023-11-07_13h52.38.388,experiment,2023.2.2,None,2023-11-07 13h52.49.122100 +0100,
1,0,1,0,11,0,11,0,52.709260208997875,,None,1,V,I,2,,,105,silence,2023-11-07_13h52.38.388,experiment,2023.2.2,None,2023-11-07 13h52.49.122100 +0100,
1,0,1,0,,,,,,,,,,,,,,105,silence,2023-11-07_13h52.38.388,experiment,2023.2.2,None,2023-11-07 13h52.49.122100 +0100,
2,0,2,0,0,0,0,0,55.99400524998782,,None,1,W,,1,,,105,silence,2023-11-07_13h52.38.388,experiment,2023.2.2,None,2023-11-07 13h52.49.122100 +0100,
2,0,2,0,1,0,1,0,58.08320491699851,,None,1,U,W,1,,,105,silence,2023-11-07_13h52.38.388,experiment,2023.2.2,None,2023-11-07 13h52.49.122100 +0100,
2,0,2,0,2,0,2,0,60.16741758398712,,None,1,X,U,1,,,105,silence,2023-11-07_13h52.38.388,experiment,2023.2.2,None,2023-11-07 13h52.49.122100 +0100,
2,0,2,0,3,0,3,0,62.262519625001005,,None,1,J,X,1,,,105,silence,2023-11-07_13h52.38.388,experiment,2023.2.2,None,2023-11-07 13h52.49.122100 +0100,
2,0,2,0,4,0,4,0,64.34949183400022,,None,1,H,J,1,,,105,silence,2023-11-07_13h52.38.388,experiment,2023.2.2,None,2023-11-07 13h52.49.122100 +0100,
2,0,2,0,5,0,5,0,66.43685179199383,,None,1,G,H,1,,,105,silence,2023-11-07_13h52.38.388,experiment,2023.2.2,None,2023-11-07 13h52.49.122100 +0100,
2,0,2,0,6,0,6,0,68.53746583400061,,None,1,D,G,1,,,105,silence,2023-11-07_13h52.38.388,experiment,2023.2.2,None,2023-11-07 13h52.49.122100 +0100,
2,0,2,0,7,0,7,0,70.62090312498913,,None,1,J,D,1,,,105,silence,2023-11-07_13h52.38.388,experiment,2023.2.2,None,2023-11-07 13h52.49.122100 +0100,
2,0,2,0,8,0,8,0,72.69319541699952,,None,1,N,J,1,,,105,silence,2023-11-07_13h52.38.388,experiment,2023.2.2,None,2023-11-07 13h52.49.122100 +0100,
2,0,2,0,9,0,9,0,74.78035733399156,,None,1,O,N,1,,,105,silence,2023-11-07_13h52.38.388,experiment,2023.2.2,None,2023-11-07 13h52.49.122100 +0100,
2,0,2,0,10,0,10,0,76.86089520899986,,None,1,D,O,1,,,105,silence,2023-11-07_13h52.38.388,experiment,2023.2.2,None,2023-11-07 13h52.49.122100 +0100,
2,0,2,0,11,0,11,0,78.95400266700017,,None,1,H,D,1,,,105,silence,2023-11-07_13h52.38.388,experiment,2023.2.2,None,2023-11-07 13h52.49.122100 +0100,
2,0,2,0,,,,,,,,,,,,,,105,silence,2023-11-07_13h52.38.388,experiment,2023.2.2,None,2023-11-07 13h52.49.122100 +0100,
3,0,3,0,0,0,0,0,83.34584454199648,,None,1,H,,2,,,105,silence,2023-11-07_13h52.38.388,experiment,2023.2.2,None,2023-11-07 13h52.49.122100 +0100,
3,0,3,0,1,0,1,0,85.4277284169948,,None,1,G,,2,,,105,silence,2023-11-07_13h52.38.388,experiment,2023.2.2,None,2023-11-07 13h52.49.122100 +0100,
3,0,3,0,2,0,2,0,87.52070279199688,,None,1,G,H,2,,,105,silence,2023-11-07_13h52.38.388,experiment,2023.2.2,None,2023-11-07 13h52.49.122100 +0100,
3,0,3,0,3,0,3,0,89.60586237499956,,None,1,E,G,2,,,105,silence,2023-11-07_13h52.38.388,experiment,2023.2.2,None,2023-11-07 13h52.49.122100 +0100,
3,0,3,0,4,0,4,0,91.69977933399787,,None,1,O,G,2,,,105,silence,2023-11-07_13h52.38.388,experiment,2023.2.2,None,2023-11-07 13h52.49.122100 +0100,
3,0,3,0,5,0,5,0,93.77963287499733,,None,1,W,E,2,,,105,silence,2023-11-07_13h52.38.388,experiment,2023.2.2,None,2023-11-07 13h52.49.122100 +0100,
3,0,3,0,6,0,6,0,95.86518475000048,,None,1,H,O,2,,,105,silence,2023-11-07_13h52.38.388,experiment,2023.2.2,None,2023-11-07 13h52.49.122100 +0100,
3,0,3,0,7,0,7,0,97.94878629199229,,None,1,V,W,2,,,105,silence,2023-11-07_13h52.38.388,experiment,2023.2.2,None,2023-11-07 13h52.49.122100 +0100,
3,0,3,0,8,0,8,0,100.03198533398972,,None,1,J,H,2,,,105,silence,2023-11-07_13h52.38.388,experiment,2023.2.2,None,2023-11-07 13h52.49.122100 +0100,
3,0,3,0,9,0,9,0,102.11524829200062,,None,1,D,V,2,,,105,silence,2023-11-07_13h52.38.388,experiment,2023.2.2,None,2023-11-07 13h52.49.122100 +0100,
3,0,3,0,10,0,10,0,104.20683270899463,,None,1,O,J,2,,,105,silence,2023-11-07_13h52.38.388,experiment,2023.2.2,None,2023-11-07 13h52.49.122100 +0100,
3,0,3,0,11,0,11,0,106.29977449998842,,None,1,E,D,2,,,105,silence,2023-11-07_13h52.38.388,experiment,2023.2.2,None,2023-11-07 13h52.49.122100 +0100,
3,0,3,0,,,,,,,,,,,,,,105,silence,2023-11-07_13h52.38.388,experiment,2023.2.2,None,2023-11-07 13h52.49.122100 +0100,
4,0,4,0,0,0,0,0,109.79865483399772,,None,1,Y,,1,,,105,silence,2023-11-07_13h52.38.388,experiment,2023.2.2,None,2023-11-07 13h52.49.122100 +0100,
4,0,4,0,1,0,1,0,111.89035691699246,,None,1,Z,Y,1,,,105,silence,2023-11-07_13h52.38.388,experiment,2023.2.2,None,2023-11-07 13h52.49.122100 +0100,
4,0,4,0,2,0,2,0,113.97476374999678,,None,1,U,Z,1,,,105,silence,2023-11-07_13h52.38.388,experiment,2023.2.2,None,2023-11-07 13h52.49.122100 +0100,
4,0,4,0,3,0,3,0,116.05737787499675,,None,1,O,U,1,,,105,silence,2023-11-07_13h52.38.388,experiment,2023.2.2,None,2023-11-07 13h52.49.122100 +0100,
4,0,4,0,4,0,4,0,118.14741474999755,,None,1,R,O,1,,,105,silence,2023-11-07_13h52.38.388,experiment,2023.2.2,None,2023-11-07 13h52.49.122100 +0100,
4,0,4,0,5,0,5,0,120.23183304199483,,None,1,U,R,1,,,105,silence,2023-11-07_13h52.38.388,experiment,2023.2.2,None,2023-11-07 13h52.49.122100 +0100,
4,0,4,0,6,0,6,0,122.3234530419868,,None,1,V,U,1,,,105,silence,2023-11-07_13h52.38.388,experiment,2023.2.2,None,2023-11-07 13h52.49.122100 +0100,
4,0,4,0,7,0,7,0,124.40776179199747,,None,1,W,V,1,,,105,silence,2023-11-07_13h52.38.388,experiment,2023.2.2,None,2023-11-07 13h52.49.122100 +0100,
4,0,4,0,8,0,8,0,126.49908441699517,,None,1,Y,W,1,,,105,silence,2023-11-07_13h52.38.388,experiment,2023.2.2,None,2023-11-07 13h52.49.122100 +0100,
4,0,4,0,9,0,9,0,128.5915816249908,,None,1,S,Y,1,,,105,silence,2023-11-07_13h52.38.388,experiment,2023.2.2,None,2023-11-07 13h52.49.122100 +0100,
4,0,4,0,10,0,10,0,130.67368599999463,,None,1,X,S,1,,,105,silence,2023-11-07_13h52.38.388,experiment,2023.2.2,None,2023-11-07 13h52.49.122100 +0100,
4,0,4,0,11,0,11,0,132.7619562089967,,None,1,Q,X,1,,,105,silence,2023-11-07_13h52.38.388,experiment,2023.2.2,None,2023-11-07 13h52.49.122100 +0100,
4,0,4,0,,,,,,,,,,,,,,105,silence,2023-11-07_13h52.38.388,experiment,2023.2.2,None,2023-11-07 13h52.49.122100 +0100,
5,0,5,0,0,0,0,0,139.95624604199838,,None,1,J,,2,,,105,silence,2023-11-07_13h52.38.388,experiment,2023.2.2,None,2023-11-07 13h52.49.122100 +0100,
5,0,5,0,1,0,1,0,142.0364160839963,,None,1,W,,2,,,105,silence,2023-11-07_13h52.38.388,experiment,2023.2.2,None,2023-11-07 13h52.49.122100 +0100,
5,0,5,0,2,0,2,0,144.12887929199496,,None,1,F,J,2,,,105,silence,2023-11-07_13h52.38.388,experiment,2023.2.2,None,2023-11-07 13h52.49.122100 +0100,
5,0,5,0,3,0,3,0,146.2207684169989,,None,1,T,W,2,,,105,silence,2023-11-07_13h52.38.388,experiment,2023.2.2,None,2023-11-07 13h52.49.122100 +0100,
5,0,5,0,4,0,4,0,148.30265704198973,,None,1,N,F,2,,,105,silence,2023-11-07_13h52.38.388,experiment,2023.2.2,None,2023-11-07 13h52.49.122100 +0100,
5,0,5,0,5,0,5,0,150.3863870419882,,None,1,S,T,2,,,105,silence,2023-11-07_13h52.38.388,experiment,2023.2.2,None,2023-11-07 13h52.49.122100 +0100,
5,0,5,0,6,0,6,0,152.47383820899995,,None,1,H,N,2,,,105,silence,2023-11-07_13h52.38.388,experiment,2023.2.2,None,2023-11-07 13h52.49.122100 +0100,
5,0,5,0,7,0,7,0,154.55878012499306,,None,1,P,S,2,,,105,silence,2023-11-07_13h52.38.388,experiment,2023.2.2,None,2023-11-07 13h52.49.122100 +0100,
5,0,5,0,8,0,8,0,156.6448211669922,,None,1,Q,H,2,,,105,silence,2023-11-07_13h52.38.388,experiment,2023.2.2,None,2023-11-07 13h52.49.122100 +0100,
5,0,5,0,9,0,9,0,158.7290471669985,,None,1,T,P,2,,,105,silence,2023-11-07_13h52.38.388,experiment,2023.2.2,None,2023-11-07 13h52.49.122100 +0100,
5,0,5,0,10,0,10,0,160.8209643339942,,['space'],1,Q,Q,2,[0.9287728329945821],[None],105,silence,2023-11-07_13h52.38.388,experiment,2023.2.2,None,2023-11-07 13h52.49.122100 +0100,
5,0,5,0,11,0,11,0,162.9113635419926,,None,1,F,T,2,,,105,silence,2023-11-07_13h52.38.388,experiment,2023.2.2,None,2023-11-07 13h52.49.122100 +0100,
5,0,5,0,,,,,,,,,,,,,,105,silence,2023-11-07_13h52.38.388,experiment,2023.2.2,None,2023-11-07 13h52.49.122100 +0100,
6,0,6,0,0,0,0,0,167.03229174998705,,None,1,X,,1,,,105,silence,2023-11-07_13h52.38.388,experiment,2023.2.2,None,2023-11-07 13h52.49.122100 +0100,
6,0,6,0,1,0,1,0,169.12081149998994,,None,1,N,X,1,,,105,silence,2023-11-07_13h52.38.388,experiment,2023.2.2,None,2023-11-07 13h52.49.122100 +0100,
6,0,6,0,2,0,2,0,171.20277229198837,,None,1,D,N,1,,,105,silence,2023-11-07_13h52.38.388,experiment,2023.2.2,None,2023-11-07 13h52.49.122100 +0100,
6,0,6,0,3,0,3,0,173.29474945898983,,None,1,Y,D,1,,,105,silence,2023-11-07_13h52.38.388,experiment,2023.2.2,None,2023-11-07 13h52.49.122100 +0100,
6,0,6,0,4,0,4,0,175.3865879169898,,None,1,W,Y,1,,,105,silence,2023-11-07_13h52.38.388,experiment,2023.2.2,None,2023-11-07 13h52.49.122100 +0100,
6,0,6,0,5,0,5,0,177.4705586249911,,None,1,I,W,1,,,105,silence,2023-11-07_13h52.38.388,experiment,2023.2.2,None,2023-11-07 13h52.49.122100 +0100,
6,0,6,0,6,0,6,0,179.56112016699626,,None,1,U,I,1,,,105,silence,2023-11-07_13h52.38.388,experiment,2023.2.2,None,2023-11-07 13h52.49.122100 +0100,
6,0,6,0,7,0,7,0,181.64733308399445,,None,1,B,U,1,,,105,silence,2023-11-07_13h52.38.388,experiment,2023.2.2,None,2023-11-07 13h52.49.122100 +0100,
6,0,6,0,8,0,8,0,183.731917083991,,None,1,K,B,1,,,105,silence,2023-11-07_13h52.38.388,experiment,2023.2.2,None,2023-11-07 13h52.49.122100 +0100,
6,0,6,0,9,0,9,0,185.8281433339871,,None,1,I,K,1,,,105,silence,2023-11-07_13h52.38.388,experiment,2023.2.2,None,2023-11-07 13h52.49.122100 +0100,
6,0,6,0,10,0,10,0,187.91216083399195,,None,1,N,I,1,,,105,silence,2023-11-07_13h52.38.388,experiment,2023.2.2,None,2023-11-07 13h52.49.122100 +0100,
6,0,6,0,11,0,11,0,189.994497208987,,None,1,P,N,1,,,105,silence,2023-11-07_13h52.38.388,experiment,2023.2.2,None,2023-11-07 13h52.49.122100 +0100,
6,0,6,0,,,,,,,,,,,,,,105,silence,2023-11-07_13h52.38.388,experiment,2023.2.2,None,2023-11-07 13h52.49.122100 +0100,
7,0,7,0,0,0,0,0,193.65595837499131,,None,1,G,,1,,,105,silence,2023-11-07_13h52.38.388,experiment,2023.2.2,None,2023-11-07 13h52.49.122100 +0100,
7,0,7,0,1,0,1,0,195.7459298749891,,None,1,Q,G,1,,,105,silence,2023-11-07_13h52.38.388,experiment,2023.2.2,None,2023-11-07 13h52.49.122100 +0100,
7,0,7,0,2,0,2,0,197.82623995898757,,None,1,L,Q,1,,,105,silence,2023-11-07_13h52.38.388,experiment,2023.2.2,None,2023-11-07 13h52.49.122100 +0100,
7,0,7,0,3,0,3,0,199.91974708400085,,None,1,V,L,1,,,105,silence,2023-11-07_13h52.38.388,experiment,2023.2.2,None,2023-11-07 13h52.49.122100 +0100,
7,0,7,0,4,0,4,0,202.00353954199818,,None,1,K,V,1,,,105,silence,2023-11-07_13h52.38.388,experiment,2023.2.2,None,2023-11-07 13h52.49.122100 +0100,
7,0,7,0,5,0,5,0,204.0979525839939,,None,1,M,K,1,,,105,silence,2023-11-07_13h52.38.388,experiment,2023.2.2,None,2023-11-07 13h52.49.122100 +0100,
7,0,7,0,6,0,6,0,206.18640754198714,,None,1,F,M,1,,,105,silence,2023-11-07_13h52.38.388,experiment,2023.2.2,None,2023-11-07 13h52.49.122100 +0100,
7,0,7,0,7,0,7,0,208.26950216699333,,None,1,L,F,1,,,105,silence,2023-11-07_13h52.38.388,experiment,2023.2.2,None,2023-11-07 13h52.49.122100 +0100,
7,0,7,0,8,0,8,0,210.35294112499105,,None,1,Y,L,1,,,105,silence,2023-11-07_13h52.38.388,experiment,2023.2.2,None,2023-11-07 13h52.49.122100 +0100,
7,0,7,0,9,0,9,0,212.45441108399245,,None,1,A,Y,1,,,105,silence,2023-11-07_13h52.38.388,experiment,2023.2.2,None,2023-11-07 13h52.49.122100 +0100,
7,0,7,0,10,0,10,0,214.51970574998995,,None,1,Z,A,1,,,105,silence,2023-11-07_13h52.38.388,experiment,2023.2.2,None,2023-11-07 13h52.49.122100 +0100,
7,0,7,0,11,0,11,0,216.60665770899504,,None,1,G,Z,1,,,105,silence,2023-11-07_13h52.38.388,experiment,2023.2.2,None,2023-11-07 13h52.49.122100 +0100,
7,0,7,0,,,,,,,,,,,,,,105,silence,2023-11-07_13h52.38.388,experiment,2023.2.2,None,2023-11-07 13h52.49.122100 +0100,
