trials_3.thisRepN,trials_3.thisTrialN,trials_3.thisN,trials_3.thisIndex,trials.thisRepN,trials.thisTrialN,trials.thisN,trials.thisIndex,thisRow.t,notes,key_resp_2.keys,key_resp_2.corr,letter.routineEndVal,nback.routineEndVal,type.routineEndVal,key_resp_2.rt,key_resp_2.duration,participant,session,date,expName,psychopyVersion,frameRate,expStart,
0,0,0,0,0,0,0,0,26.57679962500697,,None,1,T,,1,,,105,pink,2023-11-07_13h42.36.166,experiment,2023.2.2,None,2023-11-07 13h42.46.744952 +0100,
0,0,0,0,1,0,1,0,28.65740537500824,,None,1,Y,T,1,,,105,pink,2023-11-07_13h42.36.166,experiment,2023.2.2,None,2023-11-07 13h42.46.744952 +0100,
0,0,0,0,2,0,2,0,30.74021016700135,,['space'],1,Y,Y,1,[0.4806338750058785],[None],105,pink,2023-11-07_13h42.36.166,experiment,2023.2.2,None,2023-11-07 13h42.46.744952 +0100,
0,0,0,0,3,0,3,0,32.82417641700886,,['space'],1,Y,Y,1,[0.502171833999455],[None],105,pink,2023-11-07_13h42.36.166,experiment,2023.2.2,None,2023-11-07 13h42.46.744952 +0100,
0,0,0,0,4,0,4,0,34.9153817089973,,None,1,L,Y,1,,,105,pink,2023-11-07_13h42.36.166,experiment,2023.2.2,None,2023-11-07 13h42.46.744952 +0100,
0,0,0,0,5,0,5,0,37.00547366699902,,['space'],1,L,L,1,[0.41357554199930746],[None],105,pink,2023-11-07_13h42.36.166,experiment,2023.2.2,None,2023-11-07 13h42.46.744952 +0100,
0,0,0,0,6,0,6,0,39.08861825001077,,None,1,V,L,1,,,105,pink,2023-11-07_13h42.36.166,experiment,2023.2.2,None,2023-11-07 13h42.46.744952 +0100,
0,0,0,0,7,0,7,0,41.18065879200003,,None,1,D,V,1,,,105,pink,2023-11-07_13h42.36.166,experiment,2023.2.2,None,2023-11-07 13h42.46.744952 +0100,
0,0,0,0,8,0,8,0,43.26525587499782,,None,1,W,D,1,,,105,pink,2023-11-07_13h42.36.166,experiment,2023.2.2,None,2023-11-07 13h42.46.744952 +0100,
0,0,0,0,9,0,9,0,45.35242841699801,,['space'],1,W,W,1,[0.5228273749962682],[None],105,pink,2023-11-07_13h42.36.166,experiment,2023.2.2,None,2023-11-07 13h42.46.744952 +0100,
0,0,0,0,10,0,10,0,47.443883583997376,,None,1,B,W,1,,,105,pink,2023-11-07_13h42.36.166,experiment,2023.2.2,None,2023-11-07 13h42.46.744952 +0100,
0,0,0,0,11,0,11,0,49.53444195899647,,['space'],1,B,B,1,[0.5063363749941345],[None],105,pink,2023-11-07_13h42.36.166,experiment,2023.2.2,None,2023-11-07 13h42.46.744952 +0100,
0,0,0,0,,,,,,,,,,,,,,105,pink,2023-11-07_13h42.36.166,experiment,2023.2.2,None,2023-11-07 13h42.46.744952 +0100,
1,0,1,0,0,0,0,0,54.92962870899646,,None,1,M,,2,,,105,pink,2023-11-07_13h42.36.166,experiment,2023.2.2,None,2023-11-07 13h42.46.744952 +0100,
1,0,1,0,1,0,1,0,57.011783624999225,,None,1,O,,2,,,105,pink,2023-11-07_13h42.36.166,experiment,2023.2.2,None,2023-11-07 13h42.46.744952 +0100,
1,0,1,0,2,0,2,0,59.09801420899748,,None,1,A,M,2,,,105,pink,2023-11-07_13h42.36.166,experiment,2023.2.2,None,2023-11-07 13h42.46.744952 +0100,
1,0,1,0,3,0,3,0,61.19370929199795,,None,1,Q,O,2,,,105,pink,2023-11-07_13h42.36.166,experiment,2023.2.2,None,2023-11-07 13h42.46.744952 +0100,
1,0,1,0,4,0,4,0,63.28475541700027,,None,1,Y,A,2,,,105,pink,2023-11-07_13h42.36.166,experiment,2023.2.2,None,2023-11-07 13h42.46.744952 +0100,
1,0,1,0,5,0,5,0,65.36457579200214,,None,1,H,Q,2,,,105,pink,2023-11-07_13h42.36.166,experiment,2023.2.2,None,2023-11-07 13h42.46.744952 +0100,
1,0,1,0,6,0,6,0,67.45559712500835,,None,1,P,Y,2,,,105,pink,2023-11-07_13h42.36.166,experiment,2023.2.2,None,2023-11-07 13h42.46.744952 +0100,
1,0,1,0,7,0,7,0,69.53867133399763,,None,1,W,H,2,,,105,pink,2023-11-07_13h42.36.166,experiment,2023.2.2,None,2023-11-07 13h42.46.744952 +0100,
1,0,1,0,8,0,8,0,71.62030766700627,,None,1,B,P,2,,,105,pink,2023-11-07_13h42.36.166,experiment,2023.2.2,None,2023-11-07 13h42.46.744952 +0100,
1,0,1,0,9,0,9,0,73.71385779199773,,None,1,M,W,2,,,105,pink,2023-11-07_13h42.36.166,experiment,2023.2.2,None,2023-11-07 13h42.46.744952 +0100,
1,0,1,0,10,0,10,0,75.79031399999803,,None,1,E,B,2,,,105,pink,2023-11-07_13h42.36.166,experiment,2023.2.2,None,2023-11-07 13h42.46.744952 +0100,
1,0,1,0,11,0,11,0,77.8803754170076,,None,1,A,M,2,,,105,pink,2023-11-07_13h42.36.166,experiment,2023.2.2,None,2023-11-07 13h42.46.744952 +0100,
1,0,1,0,,,,,,,,,,,,,,105,pink,2023-11-07_13h42.36.166,experiment,2023.2.2,None,2023-11-07 13h42.46.744952 +0100,
2,0,2,0,0,0,0,0,82.3791335420101,,None,1,I,,2,,,105,pink,2023-11-07_13h42.36.166,experiment,2023.2.2,None,2023-11-07 13h42.46.744952 +0100,
2,0,2,0,1,0,1,0,84.46492629199929,,None,1,R,,2,,,105,pink,2023-11-07_13h42.36.166,experiment,2023.2.2,None,2023-11-07 13h42.46.744952 +0100,
2,0,2,0,2,0,2,0,86.5627836670028,,None,1,S,I,2,,,105,pink,2023-11-07_13h42.36.166,experiment,2023.2.2,None,2023-11-07 13h42.46.744952 +0100,
2,0,2,0,3,0,3,0,88.65441816700331,,None,1,P,R,2,,,105,pink,2023-11-07_13h42.36.166,experiment,2023.2.2,None,2023-11-07 13h42.46.744952 +0100,
2,0,2,0,4,0,4,0,90.73721287499939,,['space'],0,R,S,2,[1.0297924589976901],[None],105,pink,2023-11-07_13h42.36.166,experiment,2023.2.2,None,2023-11-07 13h42.46.744952 +0100,
2,0,2,0,5,0,5,0,92.82679495900811,,None,1,R,P,2,,,105,pink,2023-11-07_13h42.36.166,experiment,2023.2.2,None,2023-11-07 13h42.46.744952 +0100,
2,0,2,0,6,0,6,0,94.91992666700389,,None,1,L,R,2,,,105,pink,2023-11-07_13h42.36.166,experiment,2023.2.2,None,2023-11-07 13h42.46.744952 +0100,
2,0,2,0,7,0,7,0,97.01381745901017,,None,1,N,R,2,,,105,pink,2023-11-07_13h42.36.166,experiment,2023.2.2,None,2023-11-07 13h42.46.744952 +0100,
2,0,2,0,8,0,8,0,99.09559345900198,,None,1,I,L,2,,,105,pink,2023-11-07_13h42.36.166,experiment,2023.2.2,None,2023-11-07 13h42.46.744952 +0100,
2,0,2,0,9,0,9,0,101.18751729199721,,None,1,H,N,2,,,105,pink,2023-11-07_13h42.36.166,experiment,2023.2.2,None,2023-11-07 13h42.46.744952 +0100,
2,0,2,0,10,0,10,0,103.27449054199678,,None,1,F,I,2,,,105,pink,2023-11-07_13h42.36.166,experiment,2023.2.2,None,2023-11-07 13h42.46.744952 +0100,
2,0,2,0,11,0,11,0,105.37143079200177,,None,1,T,H,2,,,105,pink,2023-11-07_13h42.36.166,experiment,2023.2.2,None,2023-11-07 13h42.46.744952 +0100,
2,0,2,0,,,,,,,,,,,,,,105,pink,2023-11-07_13h42.36.166,experiment,2023.2.2,None,2023-11-07 13h42.46.744952 +0100,
3,0,3,0,0,0,0,0,115.63775395900302,,None,1,F,,2,,,105,pink,2023-11-07_13h42.36.166,experiment,2023.2.2,None,2023-11-07 13h42.46.744952 +0100,
3,0,3,0,1,0,1,0,117.7228710000054,,None,1,K,,2,,,105,pink,2023-11-07_13h42.36.166,experiment,2023.2.2,None,2023-11-07 13h42.46.744952 +0100,
3,0,3,0,2,0,2,0,119.80403275000572,,None,1,M,F,2,,,105,pink,2023-11-07_13h42.36.166,experiment,2023.2.2,None,2023-11-07 13h42.46.744952 +0100,
3,0,3,0,3,0,3,0,121.88520874999813,,['space'],0,M,K,2,[1.1842239590041572],[None],105,pink,2023-11-07_13h42.36.166,experiment,2023.2.2,None,2023-11-07 13h42.46.744952 +0100,
3,0,3,0,4,0,4,0,123.97718300000997,,None,1,X,M,2,,,105,pink,2023-11-07_13h42.36.166,experiment,2023.2.2,None,2023-11-07 13h42.46.744952 +0100,
3,0,3,0,5,0,5,0,126.06823450000957,,None,1,X,M,2,,,105,pink,2023-11-07_13h42.36.166,experiment,2023.2.2,None,2023-11-07 13h42.46.744952 +0100,
3,0,3,0,6,0,6,0,128.15353141700325,,None,1,P,X,2,,,105,pink,2023-11-07_13h42.36.166,experiment,2023.2.2,None,2023-11-07 13h42.46.744952 +0100,
3,0,3,0,7,0,7,0,130.24701525000273,,None,1,I,X,2,,,105,pink,2023-11-07_13h42.36.166,experiment,2023.2.2,None,2023-11-07 13h42.46.744952 +0100,
3,0,3,0,8,0,8,0,132.32876770899747,,None,1,M,P,2,,,105,pink,2023-11-07_13h42.36.166,experiment,2023.2.2,None,2023-11-07 13h42.46.744952 +0100,
3,0,3,0,9,0,9,0,134.4205710840033,,None,1,Q,I,2,,,105,pink,2023-11-07_13h42.36.166,experiment,2023.2.2,None,2023-11-07 13h42.46.744952 +0100,
3,0,3,0,10,0,10,0,136.50845975000993,,None,1,C,M,2,,,105,pink,2023-11-07_13h42.36.166,experiment,2023.2.2,None,2023-11-07 13h42.46.744952 +0100,
3,0,3,0,11,0,11,0,138.59586408401083,,None,1,X,Q,2,,,105,pink,2023-11-07_13h42.36.166,experiment,2023.2.2,None,2023-11-07 13h42.46.744952 +0100,
3,0,3,0,,,,,,,,,,,,,,105,pink,2023-11-07_13h42.36.166,experiment,2023.2.2,None,2023-11-07 13h42.46.744952 +0100,
4,0,4,0,0,0,0,0,142.55269283399684,,None,1,E,,1,,,105,pink,2023-11-07_13h42.36.166,experiment,2023.2.2,None,2023-11-07 13h42.46.744952 +0100,
4,0,4,0,1,0,1,0,144.64149112500309,,None,1,R,E,1,,,105,pink,2023-11-07_13h42.36.166,experiment,2023.2.2,None,2023-11-07 13h42.46.744952 +0100,
4,0,4,0,2,0,2,0,146.72752149999724,,None,1,U,R,1,,,105,pink,2023-11-07_13h42.36.166,experiment,2023.2.2,None,2023-11-07 13h42.46.744952 +0100,
4,0,4,0,3,0,3,0,148.8182991250069,,None,1,C,U,1,,,105,pink,2023-11-07_13h42.36.166,experiment,2023.2.2,None,2023-11-07 13h42.46.744952 +0100,
4,0,4,0,4,0,4,0,150.89585520900437,,None,1,K,C,1,,,105,pink,2023-11-07_13h42.36.166,experiment,2023.2.2,None,2023-11-07 13h42.46.744952 +0100,
4,0,4,0,5,0,5,0,152.98593525000615,,None,1,G,K,1,,,105,pink,2023-11-07_13h42.36.166,experiment,2023.2.2,None,2023-11-07 13h42.46.744952 +0100,
4,0,4,0,6,0,6,0,155.0795134170039,,None,1,V,G,1,,,105,pink,2023-11-07_13h42.36.166,experiment,2023.2.2,None,2023-11-07 13h42.46.744952 +0100,
4,0,4,0,7,0,7,0,157.16870083400863,,None,1,Z,V,1,,,105,pink,2023-11-07_13h42.36.166,experiment,2023.2.2,None,2023-11-07 13h42.46.744952 +0100,
4,0,4,0,8,0,8,0,159.25419816700742,,None,1,B,Z,1,,,105,pink,2023-11-07_13h42.36.166,experiment,2023.2.2,None,2023-11-07 13h42.46.744952 +0100,
4,0,4,0,9,0,9,0,161.34543895900424,,None,1,X,B,1,,,105,pink,2023-11-07_13h42.36.166,experiment,2023.2.2,None,2023-11-07 13h42.46.744952 +0100,
4,0,4,0,10,0,10,0,163.43874762499763,,None,1,Q,X,1,,,105,pink,2023-11-07_13h42.36.166,experiment,2023.2.2,None,2023-11-07 13h42.46.744952 +0100,
4,0,4,0,11,0,11,0,165.51643495900498,,None,1,G,Q,1,,,105,pink,2023-11-07_13h42.36.166,experiment,2023.2.2,None,2023-11-07 13h42.46.744952 +0100,
4,0,4,0,,,,,,,,,,,,,,105,pink,2023-11-07_13h42.36.166,experiment,2023.2.2,None,2023-11-07 13h42.46.744952 +0100,
5,0,5,0,0,0,0,0,168.89255879200937,,None,1,Z,,1,,,105,pink,2023-11-07_13h42.36.166,experiment,2023.2.2,None,2023-11-07 13h42.46.744952 +0100,
5,0,5,0,1,0,1,0,170.98907662500278,,None,1,O,Z,1,,,105,pink,2023-11-07_13h42.36.166,experiment,2023.2.2,None,2023-11-07 13h42.46.744952 +0100,
5,0,5,0,2,0,2,0,173.07237833400723,,None,1,H,O,1,,,105,pink,2023-11-07_13h42.36.166,experiment,2023.2.2,None,2023-11-07 13h42.46.744952 +0100,
5,0,5,0,3,0,3,0,175.1501413750084,,None,1,N,H,1,,,105,pink,2023-11-07_13h42.36.166,experiment,2023.2.2,None,2023-11-07 13h42.46.744952 +0100,
5,0,5,0,4,0,4,0,177.24568375000672,,None,1,Q,N,1,,,105,pink,2023-11-07_13h42.36.166,experiment,2023.2.2,None,2023-11-07 13h42.46.744952 +0100,
5,0,5,0,5,0,5,0,179.33807412500028,,None,1,K,Q,1,,,105,pink,2023-11-07_13h42.36.166,experiment,2023.2.2,None,2023-11-07 13h42.46.744952 +0100,
5,0,5,0,6,0,6,0,181.4210823750036,,None,1,W,K,1,,,105,pink,2023-11-07_13h42.36.166,experiment,2023.2.2,None,2023-11-07 13h42.46.744952 +0100,
5,0,5,0,7,0,7,0,183.50818708400766,,None,1,S,W,1,,,105,pink,2023-11-07_13h42.36.166,experiment,2023.2.2,None,2023-11-07 13h42.46.744952 +0100,
5,0,5,0,8,0,8,0,185.59992262499873,,None,1,P,S,1,,,105,pink,2023-11-07_13h42.36.166,experiment,2023.2.2,None,2023-11-07 13h42.46.744952 +0100,
5,0,5,0,9,0,9,0,187.69299033400603,,None,1,D,P,1,,,105,pink,2023-11-07_13h42.36.166,experiment,2023.2.2,None,2023-11-07 13h42.46.744952 +0100,
5,0,5,0,10,0,10,0,189.77049391700712,,None,1,U,D,1,,,105,pink,2023-11-07_13h42.36.166,experiment,2023.2.2,None,2023-11-07 13h42.46.744952 +0100,
5,0,5,0,11,0,11,0,191.86413116700714,,None,1,H,U,1,,,105,pink,2023-11-07_13h42.36.166,experiment,2023.2.2,None,2023-11-07 13h42.46.744952 +0100,
5,0,5,0,,,,,,,,,,,,,,105,pink,2023-11-07_13h42.36.166,experiment,2023.2.2,None,2023-11-07 13h42.46.744952 +0100,
6,0,6,0,0,0,0,0,195.00293283400242,,None,1,P,,1,,,105,pink,2023-11-07_13h42.36.166,experiment,2023.2.2,None,2023-11-07 13h42.46.744952 +0100,
6,0,6,0,1,0,1,0,197.0868325420015,,None,1,D,P,1,,,105,pink,2023-11-07_13h42.36.166,experiment,2023.2.2,None,2023-11-07 13h42.46.744952 +0100,
6,0,6,0,2,0,2,0,199.17041125000105,,None,1,K,D,1,,,105,pink,2023-11-07_13h42.36.166,experiment,2023.2.2,None,2023-11-07 13h42.46.744952 +0100,
6,0,6,0,3,0,3,0,201.26420654200774,,None,1,U,K,1,,,105,pink,2023-11-07_13h42.36.166,experiment,2023.2.2,None,2023-11-07 13h42.46.744952 +0100,
6,0,6,0,4,0,4,0,203.3556762090011,,None,1,P,U,1,,,105,pink,2023-11-07_13h42.36.166,experiment,2023.2.2,None,2023-11-07 13h42.46.744952 +0100,
6,0,6,0,5,0,5,0,205.44185350000043,,None,1,Q,P,1,,,105,pink,2023-11-07_13h42.36.166,experiment,2023.2.2,None,2023-11-07 13h42.46.744952 +0100,
6,0,6,0,6,0,6,0,207.53739949999726,,None,1,E,Q,1,,,105,pink,2023-11-07_13h42.36.166,experiment,2023.2.2,None,2023-11-07 13h42.46.744952 +0100,
6,0,6,0,7,0,7,0,209.63047845900292,,None,1,I,E,1,,,105,pink,2023-11-07_13h42.36.166,experiment,2023.2.2,None,2023-11-07 13h42.46.744952 +0100,
6,0,6,0,8,0,8,0,211.7126410839992,,None,1,F,I,1,,,105,pink,2023-11-07_13h42.36.166,experiment,2023.2.2,None,2023-11-07 13h42.46.744952 +0100,
6,0,6,0,9,0,9,0,213.80592158400395,,None,1,Z,F,1,,,105,pink,2023-11-07_13h42.36.166,experiment,2023.2.2,None,2023-11-07 13h42.46.744952 +0100,
6,0,6,0,10,0,10,0,215.88711866700032,,None,1,U,Z,1,,,105,pink,2023-11-07_13h42.36.166,experiment,2023.2.2,None,2023-11-07 13h42.46.744952 +0100,
6,0,6,0,11,0,11,0,217.97107374999905,,None,1,F,U,1,,,105,pink,2023-11-07_13h42.36.166,experiment,2023.2.2,None,2023-11-07 13h42.46.744952 +0100,
6,0,6,0,,,,,,,,,,,,,,105,pink,2023-11-07_13h42.36.166,experiment,2023.2.2,None,2023-11-07 13h42.46.744952 +0100,
7,0,7,0,0,0,0,0,230.407402249999,,None,1,N,,2,,,105,pink,2023-11-07_13h42.36.166,experiment,2023.2.2,None,2023-11-07 13h42.46.744952 +0100,
7,0,7,0,1,0,1,0,232.49729512500926,,None,1,O,,2,,,105,pink,2023-11-07_13h42.36.166,experiment,2023.2.2,None,2023-11-07 13h42.46.744952 +0100,
7,0,7,0,2,0,2,0,234.58445670900983,,None,1,D,N,2,,,105,pink,2023-11-07_13h42.36.166,experiment,2023.2.2,None,2023-11-07 13h42.46.744952 +0100,
7,0,7,0,3,0,3,0,236.67636075000337,,None,1,F,O,2,,,105,pink,2023-11-07_13h42.36.166,experiment,2023.2.2,None,2023-11-07 13h42.46.744952 +0100,
7,0,7,0,4,0,4,0,238.75806666699646,,None,1,U,D,2,,,105,pink,2023-11-07_13h42.36.166,experiment,2023.2.2,None,2023-11-07 13h42.46.744952 +0100,
7,0,7,0,5,0,5,0,240.84971350000706,,None,1,Z,F,2,,,105,pink,2023-11-07_13h42.36.166,experiment,2023.2.2,None,2023-11-07 13h42.46.744952 +0100,
7,0,7,0,6,0,6,0,242.9433175419981,,None,1,C,U,2,,,105,pink,2023-11-07_13h42.36.166,experiment,2023.2.2,None,2023-11-07 13h42.46.744952 +0100,
7,0,7,0,7,0,7,0,245.020938458998,,None,1,A,Z,2,,,105,pink,2023-11-07_13h42.36.166,experiment,2023.2.2,None,2023-11-07 13h42.46.744952 +0100,
7,0,7,0,8,0,8,0,247.10437541700958,,None,1,B,C,2,,,105,pink,2023-11-07_13h42.36.166,experiment,2023.2.2,None,2023-11-07 13h42.46.744952 +0100,
7,0,7,0,9,0,9,0,249.19123345900152,,None,1,Z,A,2,,,105,pink,2023-11-07_13h42.36.166,experiment,2023.2.2,None,2023-11-07 13h42.46.744952 +0100,
7,0,7,0,10,0,10,0,251.28316000000632,,None,1,R,B,2,,,105,pink,2023-11-07_13h42.36.166,experiment,2023.2.2,None,2023-11-07 13h42.46.744952 +0100,
7,0,7,0,11,0,11,0,253.36898816699977,,None,1,J,Z,2,,,105,pink,2023-11-07_13h42.36.166,experiment,2023.2.2,None,2023-11-07 13h42.46.744952 +0100,
7,0,7,0,,,,,,,,,,,,,,105,pink,2023-11-07_13h42.36.166,experiment,2023.2.2,None,2023-11-07 13h42.46.744952 +0100,
