trials_3.thisRepN,trials_3.thisTrialN,trials_3.thisN,trials_3.thisIndex,trials.thisRepN,trials.thisTrialN,trials.thisN,trials.thisIndex,thisRow.t,notes,key_resp_2.keys,key_resp_2.corr,letter.routineEndVal,nback.routineEndVal,type.routineEndVal,key_resp_2.rt,key_resp_2.duration,participant,session,date,expName,psychopyVersion,frameRate,expStart,
0,0,0,0,0,0,0,0,11.661303375003627,,None,1,T,,2,,,105,brown,2023-11-07_13h47.45.536,experiment,2023.2.2,None,2023-11-07 13h47.53.805485 +0100,
0,0,0,0,1,0,1,0,13.75236029100779,,None,1,M,,2,,,105,brown,2023-11-07_13h47.45.536,experiment,2023.2.2,None,2023-11-07 13h47.53.805485 +0100,
0,0,0,0,2,0,2,0,15.836697582999477,,['space'],1,T,T,2,[0.7306324999954086],[None],105,brown,2023-11-07_13h47.45.536,experiment,2023.2.2,None,2023-11-07 13h47.53.805485 +0100,
0,0,0,0,3,0,3,0,17.92391579100513,,None,1,S,M,2,,,105,brown,2023-11-07_13h47.45.536,experiment,2023.2.2,None,2023-11-07 13h47.53.805485 +0100,
0,0,0,0,4,0,4,0,20.034056375006912,,None,1,C,T,2,,,105,brown,2023-11-07_13h47.45.536,experiment,2023.2.2,None,2023-11-07 13h47.53.805485 +0100,
0,0,0,0,5,0,5,0,22.117353541005286,,None,1,I,S,2,,,105,brown,2023-11-07_13h47.45.536,experiment,2023.2.2,None,2023-11-07 13h47.53.805485 +0100,
0,0,0,0,6,0,6,0,24.186240499999258,,None,1,R,C,2,,,105,brown,2023-11-07_13h47.45.536,experiment,2023.2.2,None,2023-11-07 13h47.53.805485 +0100,
0,0,0,0,7,0,7,0,26.270033916007378,,['space'],1,I,I,2,[0.5311123749997932],[None],105,brown,2023-11-07_13h47.45.536,experiment,2023.2.2,None,2023-11-07 13h47.53.805485 +0100,
0,0,0,0,8,0,8,0,28.358273999998346,,['space'],1,R,R,2,[0.5392678329953924],[None],105,brown,2023-11-07_13h47.45.536,experiment,2023.2.2,None,2023-11-07 13h47.53.805485 +0100,
0,0,0,0,9,0,9,0,30.452259666009923,,None,1,Q,I,2,,,105,brown,2023-11-07_13h47.45.536,experiment,2023.2.2,None,2023-11-07 13h47.53.805485 +0100,
0,0,0,0,10,0,10,0,32.54119258299761,,['space'],1,R,R,2,[0.45523483300348744],[None],105,brown,2023-11-07_13h47.45.536,experiment,2023.2.2,None,2023-11-07 13h47.53.805485 +0100,
0,0,0,0,11,0,11,0,34.62756362500659,,None,1,G,Q,2,,,105,brown,2023-11-07_13h47.45.536,experiment,2023.2.2,None,2023-11-07 13h47.53.805485 +0100,
0,0,0,0,,,,,,,,,,,,,,105,brown,2023-11-07_13h47.45.536,experiment,2023.2.2,None,2023-11-07 13h47.53.805485 +0100,
1,0,1,0,0,0,0,0,38.32290358300088,,None,1,R,,1,,,105,brown,2023-11-07_13h47.45.536,experiment,2023.2.2,None,2023-11-07 13h47.53.805485 +0100,
1,0,1,0,1,0,1,0,40.41915433300892,,None,1,X,R,1,,,105,brown,2023-11-07_13h47.45.536,experiment,2023.2.2,None,2023-11-07 13h47.53.805485 +0100,
1,0,1,0,2,0,2,0,42.49947075000091,,None,1,T,X,1,,,105,brown,2023-11-07_13h47.45.536,experiment,2023.2.2,None,2023-11-07 13h47.53.805485 +0100,
1,0,1,0,3,0,3,0,44.58499562500219,,None,1,B,T,1,,,105,brown,2023-11-07_13h47.45.536,experiment,2023.2.2,None,2023-11-07 13h47.53.805485 +0100,
1,0,1,0,4,0,4,0,46.66649725000025,,None,1,I,B,1,,,105,brown,2023-11-07_13h47.45.536,experiment,2023.2.2,None,2023-11-07 13h47.53.805485 +0100,
1,0,1,0,5,0,5,0,48.75225879100617,,None,1,N,I,1,,,105,brown,2023-11-07_13h47.45.536,experiment,2023.2.2,None,2023-11-07 13h47.53.805485 +0100,
1,0,1,0,6,0,6,0,50.838909666010295,,['space'],1,N,N,1,[0.8884184999915306],[None],105,brown,2023-11-07_13h47.45.536,experiment,2023.2.2,None,2023-11-07 13h47.53.805485 +0100,
1,0,1,0,7,0,7,0,52.927201750004315,,None,1,G,N,1,,,105,brown,2023-11-07_13h47.45.536,experiment,2023.2.2,None,2023-11-07 13h47.53.805485 +0100,
1,0,1,0,8,0,8,0,55.01614595799765,,None,1,X,G,1,,,105,brown,2023-11-07_13h47.45.536,experiment,2023.2.2,None,2023-11-07 13h47.53.805485 +0100,
1,0,1,0,9,0,9,0,57.103093208002974,,None,1,Z,X,1,,,105,brown,2023-11-07_13h47.45.536,experiment,2023.2.2,None,2023-11-07 13h47.53.805485 +0100,
1,0,1,0,10,0,10,0,59.19227108301129,,None,1,B,Z,1,,,105,brown,2023-11-07_13h47.45.536,experiment,2023.2.2,None,2023-11-07 13h47.53.805485 +0100,
1,0,1,0,11,0,11,0,61.27419224999903,,None,1,C,B,1,,,105,brown,2023-11-07_13h47.45.536,experiment,2023.2.2,None,2023-11-07 13h47.53.805485 +0100,
1,0,1,0,,,,,,,,,,,,,,105,brown,2023-11-07_13h47.45.536,experiment,2023.2.2,None,2023-11-07 13h47.53.805485 +0100,
2,0,2,0,0,0,0,0,65.12624545799918,,None,1,U,,1,,,105,brown,2023-11-07_13h47.45.536,experiment,2023.2.2,None,2023-11-07 13h47.53.805485 +0100,
2,0,2,0,1,0,1,0,67.20780341600766,,None,1,G,U,1,,,105,brown,2023-11-07_13h47.45.536,experiment,2023.2.2,None,2023-11-07 13h47.53.805485 +0100,
2,0,2,0,2,0,2,0,69.29275920800865,,None,1,O,G,1,,,105,brown,2023-11-07_13h47.45.536,experiment,2023.2.2,None,2023-11-07 13h47.53.805485 +0100,
2,0,2,0,3,0,3,0,71.37420175000443,,None,1,N,O,1,,,105,brown,2023-11-07_13h47.45.536,experiment,2023.2.2,None,2023-11-07 13h47.53.805485 +0100,
2,0,2,0,4,0,4,0,73.46938258300361,,None,1,L,N,1,,,105,brown,2023-11-07_13h47.45.536,experiment,2023.2.2,None,2023-11-07 13h47.53.805485 +0100,
2,0,2,0,5,0,5,0,75.54963383299764,,None,1,S,L,1,,,105,brown,2023-11-07_13h47.45.536,experiment,2023.2.2,None,2023-11-07 13h47.53.805485 +0100,
2,0,2,0,6,0,6,0,77.64224887501041,,None,1,M,S,1,,,105,brown,2023-11-07_13h47.45.536,experiment,2023.2.2,None,2023-11-07 13h47.53.805485 +0100,
2,0,2,0,7,0,7,0,79.7245868750033,,None,1,U,M,1,,,105,brown,2023-11-07_13h47.45.536,experiment,2023.2.2,None,2023-11-07 13h47.53.805485 +0100,
2,0,2,0,8,0,8,0,81.81379645800916,,None,1,K,U,1,,,105,brown,2023-11-07_13h47.45.536,experiment,2023.2.2,None,2023-11-07 13h47.53.805485 +0100,
2,0,2,0,9,0,9,0,83.89798275000066,,None,1,M,K,1,,,105,brown,2023-11-07_13h47.45.536,experiment,2023.2.2,None,2023-11-07 13h47.53.805485 +0100,
2,0,2,0,10,0,10,0,85.98667325000861,,None,1,Z,M,1,,,105,brown,2023-11-07_13h47.45.536,experiment,2023.2.2,None,2023-11-07 13h47.53.805485 +0100,
2,0,2,0,11,0,11,0,88.06934258301044,,['space'],1,Z,Z,1,[0.700165541988099],[None],105,brown,2023-11-07_13h47.45.536,experiment,2023.2.2,None,2023-11-07 13h47.53.805485 +0100,
2,0,2,0,,,,,,,,,,,,,,105,brown,2023-11-07_13h47.45.536,experiment,2023.2.2,None,2023-11-07 13h47.53.805485 +0100,
3,0,3,0,0,0,0,0,93.77780087500287,,None,1,N,,2,,,105,brown,2023-11-07_13h47.45.536,experiment,2023.2.2,None,2023-11-07 13h47.53.805485 +0100,
3,0,3,0,1,0,1,0,95.87581270800729,,None,1,J,,2,,,105,brown,2023-11-07_13h47.45.536,experiment,2023.2.2,None,2023-11-07 13h47.53.805485 +0100,
3,0,3,0,2,0,2,0,97.95909520800342,,None,1,A,N,2,,,105,brown,2023-11-07_13h47.45.536,experiment,2023.2.2,None,2023-11-07 13h47.53.805485 +0100,
3,0,3,0,3,0,3,0,100.0264287910104,,None,1,Y,J,2,,,105,brown,2023-11-07_13h47.45.536,experiment,2023.2.2,None,2023-11-07 13h47.53.805485 +0100,
3,0,3,0,4,0,4,0,102.11110058300255,,None,1,D,A,2,,,105,brown,2023-11-07_13h47.45.536,experiment,2023.2.2,None,2023-11-07 13h47.53.805485 +0100,
3,0,3,0,5,0,5,0,104.19729587499751,,None,1,K,Y,2,,,105,brown,2023-11-07_13h47.45.536,experiment,2023.2.2,None,2023-11-07 13h47.53.805485 +0100,
3,0,3,0,6,0,6,0,106.29235650000919,,None,1,O,D,2,,,105,brown,2023-11-07_13h47.45.536,experiment,2023.2.2,None,2023-11-07 13h47.53.805485 +0100,
3,0,3,0,7,0,7,0,108.36998874999699,,None,1,W,K,2,,,105,brown,2023-11-07_13h47.45.536,experiment,2023.2.2,None,2023-11-07 13h47.53.805485 +0100,
3,0,3,0,8,0,8,0,110.45936637499835,,None,1,V,O,2,,,105,brown,2023-11-07_13h47.45.536,experiment,2023.2.2,None,2023-11-07 13h47.53.805485 +0100,
3,0,3,0,9,0,9,0,112.55677495800774,,None,1,E,W,2,,,105,brown,2023-11-07_13h47.45.536,experiment,2023.2.2,None,2023-11-07 13h47.53.805485 +0100,
3,0,3,0,10,0,10,0,114.64652999999817,,['space'],0,W,V,2,[0.7622285420075059],[None],105,brown,2023-11-07_13h47.45.536,experiment,2023.2.2,None,2023-11-07 13h47.53.805485 +0100,
3,0,3,0,11,0,11,0,116.72978237499774,,None,1,P,E,2,,,105,brown,2023-11-07_13h47.45.536,experiment,2023.2.2,None,2023-11-07 13h47.53.805485 +0100,
3,0,3,0,,,,,,,,,,,,,,105,brown,2023-11-07_13h47.45.536,experiment,2023.2.2,None,2023-11-07 13h47.53.805485 +0100,
4,0,4,0,0,0,0,0,120.65866904100403,,None,1,P,,2,,,105,brown,2023-11-07_13h47.45.536,experiment,2023.2.2,None,2023-11-07 13h47.53.805485 +0100,
4,0,4,0,1,0,1,0,122.77163033300894,,None,1,F,,2,,,105,brown,2023-11-07_13h47.45.536,experiment,2023.2.2,None,2023-11-07 13h47.53.805485 +0100,
4,0,4,0,2,0,2,0,124.83975687500788,,None,1,J,P,2,,,105,brown,2023-11-07_13h47.45.536,experiment,2023.2.2,None,2023-11-07 13h47.53.805485 +0100,
4,0,4,0,3,0,3,0,126.92893541599915,,None,1,U,F,2,,,105,brown,2023-11-07_13h47.45.536,experiment,2023.2.2,None,2023-11-07 13h47.53.805485 +0100,
4,0,4,0,4,0,4,0,129.0122593749984,,None,1,I,J,2,,,105,brown,2023-11-07_13h47.45.536,experiment,2023.2.2,None,2023-11-07 13h47.53.805485 +0100,
4,0,4,0,5,0,5,0,131.09552724999958,,None,1,J,U,2,,,105,brown,2023-11-07_13h47.45.536,experiment,2023.2.2,None,2023-11-07 13h47.53.805485 +0100,
4,0,4,0,6,0,6,0,133.18572070800292,,None,1,X,I,2,,,105,brown,2023-11-07_13h47.45.536,experiment,2023.2.2,None,2023-11-07 13h47.53.805485 +0100,
4,0,4,0,7,0,7,0,135.2789416660089,,None,1,V,J,2,,,105,brown,2023-11-07_13h47.45.536,experiment,2023.2.2,None,2023-11-07 13h47.53.805485 +0100,
4,0,4,0,8,0,8,0,137.3618953749974,,None,1,Y,X,2,,,105,brown,2023-11-07_13h47.45.536,experiment,2023.2.2,None,2023-11-07 13h47.53.805485 +0100,
4,0,4,0,9,0,9,0,139.4430908330105,,None,1,Y,V,2,,,105,brown,2023-11-07_13h47.45.536,experiment,2023.2.2,None,2023-11-07 13h47.53.805485 +0100,
4,0,4,0,10,0,10,0,141.53824408299988,,None,1,F,Y,2,,,105,brown,2023-11-07_13h47.45.536,experiment,2023.2.2,None,2023-11-07 13h47.53.805485 +0100,
4,0,4,0,11,0,11,0,143.61923720799678,,None,1,H,Y,2,,,105,brown,2023-11-07_13h47.45.536,experiment,2023.2.2,None,2023-11-07 13h47.53.805485 +0100,
4,0,4,0,,,,,,,,,,,,,,105,brown,2023-11-07_13h47.45.536,experiment,2023.2.2,None,2023-11-07 13h47.53.805485 +0100,
5,0,5,0,0,0,0,0,147.47090283301077,,None,1,H,,2,,,105,brown,2023-11-07_13h47.45.536,experiment,2023.2.2,None,2023-11-07 13h47.53.805485 +0100,
5,0,5,0,1,0,1,0,149.55411916600133,,None,1,G,,2,,,105,brown,2023-11-07_13h47.45.536,experiment,2023.2.2,None,2023-11-07 13h47.53.805485 +0100,
5,0,5,0,2,0,2,0,151.64652054100588,,None,1,U,H,2,,,105,brown,2023-11-07_13h47.45.536,experiment,2023.2.2,None,2023-11-07 13h47.53.805485 +0100,
5,0,5,0,3,0,3,0,153.73005041600845,,None,1,U,G,2,,,105,brown,2023-11-07_13h47.45.536,experiment,2023.2.2,None,2023-11-07 13h47.53.805485 +0100,
5,0,5,0,4,0,4,0,155.82034375000512,,None,1,T,U,2,,,105,brown,2023-11-07_13h47.45.536,experiment,2023.2.2,None,2023-11-07 13h47.53.805485 +0100,
5,0,5,0,5,0,5,0,157.90354937499797,,None,1,B,U,2,,,105,brown,2023-11-07_13h47.45.536,experiment,2023.2.2,None,2023-11-07 13h47.53.805485 +0100,
5,0,5,0,6,0,6,0,159.98632483300753,,None,1,F,T,2,,,105,brown,2023-11-07_13h47.45.536,experiment,2023.2.2,None,2023-11-07 13h47.53.805485 +0100,
5,0,5,0,7,0,7,0,162.0703385000088,,None,1,A,B,2,,,105,brown,2023-11-07_13h47.45.536,experiment,2023.2.2,None,2023-11-07 13h47.53.805485 +0100,
5,0,5,0,8,0,8,0,164.15358970800298,,None,1,W,F,2,,,105,brown,2023-11-07_13h47.45.536,experiment,2023.2.2,None,2023-11-07 13h47.53.805485 +0100,
5,0,5,0,9,0,9,0,166.23689316600212,,None,1,G,A,2,,,105,brown,2023-11-07_13h47.45.536,experiment,2023.2.2,None,2023-11-07 13h47.53.805485 +0100,
5,0,5,0,10,0,10,0,168.31961220799712,,None,1,E,W,2,,,105,brown,2023-11-07_13h47.45.536,experiment,2023.2.2,None,2023-11-07 13h47.53.805485 +0100,
5,0,5,0,11,0,11,0,170.41320787499717,,None,1,D,G,2,,,105,brown,2023-11-07_13h47.45.536,experiment,2023.2.2,None,2023-11-07 13h47.53.805485 +0100,
5,0,5,0,,,,,,,,,,,,,,105,brown,2023-11-07_13h47.45.536,experiment,2023.2.2,None,2023-11-07 13h47.53.805485 +0100,
6,0,6,0,0,0,0,0,173.79785395800718,,None,1,Z,,1,,,105,brown,2023-11-07_13h47.45.536,experiment,2023.2.2,None,2023-11-07 13h47.53.805485 +0100,
6,0,6,0,1,0,1,0,175.8925345000025,,None,1,N,Z,1,,,105,brown,2023-11-07_13h47.45.536,experiment,2023.2.2,None,2023-11-07 13h47.53.805485 +0100,
6,0,6,0,2,0,2,0,177.97821791601018,,None,1,E,N,1,,,105,brown,2023-11-07_13h47.45.536,experiment,2023.2.2,None,2023-11-07 13h47.53.805485 +0100,
6,0,6,0,3,0,3,0,180.07021716600866,,None,1,F,E,1,,,105,brown,2023-11-07_13h47.45.536,experiment,2023.2.2,None,2023-11-07 13h47.53.805485 +0100,
6,0,6,0,4,0,4,0,182.1564688750077,,None,1,P,F,1,,,105,brown,2023-11-07_13h47.45.536,experiment,2023.2.2,None,2023-11-07 13h47.53.805485 +0100,
6,0,6,0,5,0,5,0,184.24137270799838,,None,1,Z,P,1,,,105,brown,2023-11-07_13h47.45.536,experiment,2023.2.2,None,2023-11-07 13h47.53.805485 +0100,
6,0,6,0,6,0,6,0,186.32664062500407,,['space'],1,Z,Z,1,[0.6251406669907738],[None],105,brown,2023-11-07_13h47.45.536,experiment,2023.2.2,None,2023-11-07 13h47.53.805485 +0100,
6,0,6,0,7,0,7,0,188.42061833300977,,None,1,M,Z,1,,,105,brown,2023-11-07_13h47.45.536,experiment,2023.2.2,None,2023-11-07 13h47.53.805485 +0100,
6,0,6,0,8,0,8,0,190.51339566599927,,None,1,N,M,1,,,105,brown,2023-11-07_13h47.45.536,experiment,2023.2.2,None,2023-11-07 13h47.53.805485 +0100,
6,0,6,0,9,0,9,0,192.5953837910056,,None,1,O,N,1,,,105,brown,2023-11-07_13h47.45.536,experiment,2023.2.2,None,2023-11-07 13h47.53.805485 +0100,
6,0,6,0,10,0,10,0,194.68840566600556,,None,1,Y,O,1,,,105,brown,2023-11-07_13h47.45.536,experiment,2023.2.2,None,2023-11-07 13h47.53.805485 +0100,
6,0,6,0,11,0,11,0,196.77173804100312,,['space'],1,Y,Y,1,[0.5508564579940867],[None],105,brown,2023-11-07_13h47.45.536,experiment,2023.2.2,None,2023-11-07 13h47.53.805485 +0100,
6,0,6,0,,,,,,,,,,,,,,105,brown,2023-11-07_13h47.45.536,experiment,2023.2.2,None,2023-11-07 13h47.53.805485 +0100,
7,0,7,0,0,0,0,0,200.53318329100148,,None,1,C,,1,,,105,brown,2023-11-07_13h47.45.536,experiment,2023.2.2,None,2023-11-07 13h47.53.805485 +0100,
7,0,7,0,1,0,1,0,202.6146703330014,,None,1,P,C,1,,,105,brown,2023-11-07_13h47.45.536,experiment,2023.2.2,None,2023-11-07 13h47.53.805485 +0100,
7,0,7,0,2,0,2,0,204.70496408300824,,None,1,F,P,1,,,105,brown,2023-11-07_13h47.45.536,experiment,2023.2.2,None,2023-11-07 13h47.53.805485 +0100,
7,0,7,0,3,0,3,0,206.78707112499978,,None,1,D,F,1,,,105,brown,2023-11-07_13h47.45.536,experiment,2023.2.2,None,2023-11-07 13h47.53.805485 +0100,
7,0,7,0,4,0,4,0,208.8800883750082,,None,1,Z,D,1,,,105,brown,2023-11-07_13h47.45.536,experiment,2023.2.2,None,2023-11-07 13h47.53.805485 +0100,
7,0,7,0,5,0,5,0,210.96193616600067,,None,1,V,Z,1,,,105,brown,2023-11-07_13h47.45.536,experiment,2023.2.2,None,2023-11-07 13h47.53.805485 +0100,
7,0,7,0,6,0,6,0,213.05510024999967,,None,1,B,V,1,,,105,brown,2023-11-07_13h47.45.536,experiment,2023.2.2,None,2023-11-07 13h47.53.805485 +0100,
7,0,7,0,7,0,7,0,215.13726204101113,,None,1,C,B,1,,,105,brown,2023-11-07_13h47.45.536,experiment,2023.2.2,None,2023-11-07 13h47.53.805485 +0100,
7,0,7,0,8,0,8,0,217.22048579101101,,None,1,A,C,1,,,105,brown,2023-11-07_13h47.45.536,experiment,2023.2.2,None,2023-11-07 13h47.53.805485 +0100,
7,0,7,0,9,0,9,0,219.31190966600843,,None,1,E,A,1,,,105,brown,2023-11-07_13h47.45.536,experiment,2023.2.2,None,2023-11-07 13h47.53.805485 +0100,
7,0,7,0,10,0,10,0,221.40501875001064,,None,1,R,E,1,,,105,brown,2023-11-07_13h47.45.536,experiment,2023.2.2,None,2023-11-07 13h47.53.805485 +0100,
7,0,7,0,11,0,11,0,223.48355725000147,,None,1,W,R,1,,,105,brown,2023-11-07_13h47.45.536,experiment,2023.2.2,None,2023-11-07 13h47.53.805485 +0100,
7,0,7,0,,,,,,,,,,,,,,105,brown,2023-11-07_13h47.45.536,experiment,2023.2.2,None,2023-11-07 13h47.53.805485 +0100,
