trials_3.thisRepN,trials_3.thisTrialN,trials_3.thisN,trials_3.thisIndex,trials.thisRepN,trials.thisTrialN,trials.thisN,trials.thisIndex,thisRow.t,notes,key_resp_2.keys,key_resp_2.corr,letter.routineEndVal,nback.routineEndVal,type.routineEndVal,key_resp_2.rt,key_resp_2.duration,participant,session,date,expName,psychopyVersion,frameRate,expStart,
0,0,0,0,0,0,0,0,4.481990499999938,,None,1,X,,2,,,364109,brown,2023-11-15_22h51.39.329,experiment,2023.2.2,59.941257567704696,2023-11-15 22h51.58.605274 +0100,
0,0,0,0,1,0,1,0,6.580930999999964,,None,1,Q,,2,,,364109,brown,2023-11-15_22h51.39.329,experiment,2023.2.2,59.941257567704696,2023-11-15 22h51.58.605274 +0100,
0,0,0,0,2,0,2,0,8.67967359999966,,None,1,P,X,2,,,364109,brown,2023-11-15_22h51.39.329,experiment,2023.2.2,59.941257567704696,2023-11-15 22h51.58.605274 +0100,
0,0,0,0,3,0,3,0,10.779587199999696,,['space'],1,Q,Q,2,[0.39701460000014777],[None],364109,brown,2023-11-15_22h51.39.329,experiment,2023.2.2,59.941257567704696,2023-11-15 22h51.58.605274 +0100,
0,0,0,0,4,0,4,0,12.879363900000044,,['space'],1,P,P,2,[0.4014147000002595],[None],364109,brown,2023-11-15_22h51.39.329,experiment,2023.2.2,59.941257567704696,2023-11-15 22h51.58.605274 +0100,
0,0,0,0,5,0,5,0,14.979219999999714,,None,1,N,Q,2,,,364109,brown,2023-11-15_22h51.39.329,experiment,2023.2.2,59.941257567704696,2023-11-15 22h51.58.605274 +0100,
0,0,0,0,6,0,6,0,17.0790978,,None,1,N,P,2,,,364109,brown,2023-11-15_22h51.39.329,experiment,2023.2.2,59.941257567704696,2023-11-15 22h51.58.605274 +0100,
0,0,0,0,7,0,7,0,19.17893409999988,,None,1,E,N,2,,,364109,brown,2023-11-15_22h51.39.329,experiment,2023.2.2,59.941257567704696,2023-11-15 22h51.58.605274 +0100,
0,0,0,0,8,0,8,0,21.278891799999656,,['space'],1,N,N,2,[0.40390160000015385],[None],364109,brown,2023-11-15_22h51.39.329,experiment,2023.2.2,59.941257567704696,2023-11-15 22h51.58.605274 +0100,
0,0,0,0,9,0,9,0,23.379078599999957,,['space'],1,E,E,2,[0.6876962000001186],[None],364109,brown,2023-11-15_22h51.39.329,experiment,2023.2.2,59.941257567704696,2023-11-15 22h51.58.605274 +0100,
0,0,0,0,10,0,10,0,25.48118859999977,,None,1,K,N,2,,,364109,brown,2023-11-15_22h51.39.329,experiment,2023.2.2,59.941257567704696,2023-11-15 22h51.58.605274 +0100,
0,0,0,0,11,0,11,0,27.57863989999987,,['space'],1,E,E,2,[0.38011550000010175],[None],364109,brown,2023-11-15_22h51.39.329,experiment,2023.2.2,59.941257567704696,2023-11-15 22h51.58.605274 +0100,
0,0,0,0,,,,,,,,,,,,,,364109,brown,2023-11-15_22h51.39.329,experiment,2023.2.2,59.941257567704696,2023-11-15 22h51.58.605274 +0100,
1,0,1,0,0,0,0,0,30.566917099999955,,None,1,Z,,1,,,364109,brown,2023-11-15_22h51.39.329,experiment,2023.2.2,59.941257567704696,2023-11-15 22h51.58.605274 +0100,
1,0,1,0,1,0,1,0,32.66192060000003,,None,1,P,Z,1,,,364109,brown,2023-11-15_22h51.39.329,experiment,2023.2.2,59.941257567704696,2023-11-15 22h51.58.605274 +0100,
1,0,1,0,2,0,2,0,34.76180780000004,,None,1,Y,P,1,,,364109,brown,2023-11-15_22h51.39.329,experiment,2023.2.2,59.941257567704696,2023-11-15 22h51.58.605274 +0100,
1,0,1,0,3,0,3,0,36.86370880000004,,None,1,R,Y,1,,,364109,brown,2023-11-15_22h51.39.329,experiment,2023.2.2,59.941257567704696,2023-11-15 22h51.58.605274 +0100,
1,0,1,0,4,0,4,0,38.961576799999875,,['space'],1,R,R,1,[0.393366899999819],[None],364109,brown,2023-11-15_22h51.39.329,experiment,2023.2.2,59.941257567704696,2023-11-15 22h51.58.605274 +0100,
1,0,1,0,5,0,5,0,41.06139829999984,,['space'],1,R,R,1,[0.397800400000051],[None],364109,brown,2023-11-15_22h51.39.329,experiment,2023.2.2,59.941257567704696,2023-11-15 22h51.58.605274 +0100,
1,0,1,0,6,0,6,0,43.161341300000004,,None,1,Q,R,1,,,364109,brown,2023-11-15_22h51.39.329,experiment,2023.2.2,59.941257567704696,2023-11-15 22h51.58.605274 +0100,
1,0,1,0,7,0,7,0,45.26148599999988,,['space'],1,Q,Q,1,[0.3802746000001207],[None],364109,brown,2023-11-15_22h51.39.329,experiment,2023.2.2,59.941257567704696,2023-11-15 22h51.58.605274 +0100,
1,0,1,0,8,0,8,0,47.36122290000003,,['space'],1,Q,Q,1,[0.4005386999997427],[None],364109,brown,2023-11-15_22h51.39.329,experiment,2023.2.2,59.941257567704696,2023-11-15 22h51.58.605274 +0100,
1,0,1,0,9,0,9,0,49.46162699999968,,None,1,G,Q,1,,,364109,brown,2023-11-15_22h51.39.329,experiment,2023.2.2,59.941257567704696,2023-11-15 22h51.58.605274 +0100,
1,0,1,0,10,0,10,0,51.56108959999983,,['space'],1,G,G,1,[0.3606826000000183],[None],364109,brown,2023-11-15_22h51.39.329,experiment,2023.2.2,59.941257567704696,2023-11-15 22h51.58.605274 +0100,
1,0,1,0,11,0,11,0,53.66085269999985,,None,1,I,G,1,,,364109,brown,2023-11-15_22h51.39.329,experiment,2023.2.2,59.941257567704696,2023-11-15 22h51.58.605274 +0100,
1,0,1,0,,,,,,,,,,,,,,364109,brown,2023-11-15_22h51.39.329,experiment,2023.2.2,59.941257567704696,2023-11-15 22h51.58.605274 +0100,
2,0,2,0,0,0,0,0,56.544030699999894,,None,1,Y,,2,,,364109,brown,2023-11-15_22h51.39.329,experiment,2023.2.2,59.941257567704696,2023-11-15 22h51.58.605274 +0100,
2,0,2,0,1,0,1,0,58.6434062999997,,None,1,W,,2,,,364109,brown,2023-11-15_22h51.39.329,experiment,2023.2.2,59.941257567704696,2023-11-15 22h51.58.605274 +0100,
2,0,2,0,2,0,2,0,60.74361120000003,,None,1,O,Y,2,,,364109,brown,2023-11-15_22h51.39.329,experiment,2023.2.2,59.941257567704696,2023-11-15 22h51.58.605274 +0100,
2,0,2,0,3,0,3,0,62.84367209999982,,['space'],1,W,W,2,[0.4035575000002609],[None],364109,brown,2023-11-15_22h51.39.329,experiment,2023.2.2,59.941257567704696,2023-11-15 22h51.58.605274 +0100,
2,0,2,0,4,0,4,0,64.94345829999975,,None,1,T,O,2,,,364109,brown,2023-11-15_22h51.39.329,experiment,2023.2.2,59.941257567704696,2023-11-15 22h51.58.605274 +0100,
2,0,2,0,5,0,5,0,67.04348690000006,,['space'],1,W,W,2,[0.5508144999998876],[None],364109,brown,2023-11-15_22h51.39.329,experiment,2023.2.2,59.941257567704696,2023-11-15 22h51.58.605274 +0100,
2,0,2,0,6,0,6,0,69.14351309999984,,None,1,S,T,2,,,364109,brown,2023-11-15_22h51.39.329,experiment,2023.2.2,59.941257567704696,2023-11-15 22h51.58.605274 +0100,
2,0,2,0,7,0,7,0,71.24335969999993,,['space'],1,W,W,2,[0.3959997000001749],[None],364109,brown,2023-11-15_22h51.39.329,experiment,2023.2.2,59.941257567704696,2023-11-15 22h51.58.605274 +0100,
2,0,2,0,8,0,8,0,73.34320230000003,,None,1,G,S,2,,,364109,brown,2023-11-15_22h51.39.329,experiment,2023.2.2,59.941257567704696,2023-11-15 22h51.58.605274 +0100,
2,0,2,0,9,0,9,0,75.44324740000002,,['space'],1,W,W,2,[0.4019065000002229],[None],364109,brown,2023-11-15_22h51.39.329,experiment,2023.2.2,59.941257567704696,2023-11-15 22h51.58.605274 +0100,
2,0,2,0,10,0,10,0,77.54269889999978,,None,1,H,G,2,,,364109,brown,2023-11-15_22h51.39.329,experiment,2023.2.2,59.941257567704696,2023-11-15 22h51.58.605274 +0100,
2,0,2,0,11,0,11,0,79.64269819999981,,['space'],1,W,W,2,[0.3680888999997478],[None],364109,brown,2023-11-15_22h51.39.329,experiment,2023.2.2,59.941257567704696,2023-11-15 22h51.58.605274 +0100,
2,0,2,0,,,,,,,,,,,,,,364109,brown,2023-11-15_22h51.39.329,experiment,2023.2.2,59.941257567704696,2023-11-15 22h51.58.605274 +0100,
3,0,3,0,0,0,0,0,82.21127449999994,,None,1,M,,1,,,364109,brown,2023-11-15_22h51.39.329,experiment,2023.2.2,59.941257567704696,2023-11-15 22h51.58.605274 +0100,
3,0,3,0,1,0,1,0,84.30966609999996,,None,1,S,M,1,,,364109,brown,2023-11-15_22h51.39.329,experiment,2023.2.2,59.941257567704696,2023-11-15 22h51.58.605274 +0100,
3,0,3,0,2,0,2,0,86.40959329999987,,['space'],1,S,S,1,[0.3982074000000466],[None],364109,brown,2023-11-15_22h51.39.329,experiment,2023.2.2,59.941257567704696,2023-11-15 22h51.58.605274 +0100,
3,0,3,0,3,0,3,0,88.50929829999995,,None,1,X,S,1,,,364109,brown,2023-11-15_22h51.39.329,experiment,2023.2.2,59.941257567704696,2023-11-15 22h51.58.605274 +0100,
3,0,3,0,4,0,4,0,90.60928650000005,,['space'],1,X,X,1,[0.4036687999996502],[None],364109,brown,2023-11-15_22h51.39.329,experiment,2023.2.2,59.941257567704696,2023-11-15 22h51.58.605274 +0100,
3,0,3,0,5,0,5,0,92.70917740000004,,['space'],1,X,X,1,[0.35988019999967946],[None],364109,brown,2023-11-15_22h51.39.329,experiment,2023.2.2,59.941257567704696,2023-11-15 22h51.58.605274 +0100,
3,0,3,0,6,0,6,0,94.80900569999994,,None,1,S,X,1,,,364109,brown,2023-11-15_22h51.39.329,experiment,2023.2.2,59.941257567704696,2023-11-15 22h51.58.605274 +0100,
3,0,3,0,7,0,7,0,96.90907019999986,,None,1,Y,S,1,,,364109,brown,2023-11-15_22h51.39.329,experiment,2023.2.2,59.941257567704696,2023-11-15 22h51.58.605274 +0100,
3,0,3,0,8,0,8,0,99.00859549999996,,None,1,D,Y,1,,,364109,brown,2023-11-15_22h51.39.329,experiment,2023.2.2,59.941257567704696,2023-11-15 22h51.58.605274 +0100,
3,0,3,0,9,0,9,0,101.10883459999968,,None,1,J,D,1,,,364109,brown,2023-11-15_22h51.39.329,experiment,2023.2.2,59.941257567704696,2023-11-15 22h51.58.605274 +0100,
3,0,3,0,10,0,10,0,103.2089606999998,,['space'],1,J,J,1,[0.4455137999998442],[None],364109,brown,2023-11-15_22h51.39.329,experiment,2023.2.2,59.941257567704696,2023-11-15 22h51.58.605274 +0100,
3,0,3,0,11,0,11,0,105.30847999999969,,None,1,V,J,1,,,364109,brown,2023-11-15_22h51.39.329,experiment,2023.2.2,59.941257567704696,2023-11-15 22h51.58.605274 +0100,
3,0,3,0,,,,,,,,,,,,,,364109,brown,2023-11-15_22h51.39.329,experiment,2023.2.2,59.941257567704696,2023-11-15 22h51.58.605274 +0100,
4,0,4,0,0,0,0,0,108.07510279999997,,None,1,V,,1,,,364109,brown,2023-11-15_22h51.39.329,experiment,2023.2.2,59.941257567704696,2023-11-15 22h51.58.605274 +0100,
4,0,4,0,1,0,1,0,110.17514200000005,,['space'],1,V,V,1,[0.4293860000002496],[None],364109,brown,2023-11-15_22h51.39.329,experiment,2023.2.2,59.941257567704696,2023-11-15 22h51.58.605274 +0100,
4,0,4,0,2,0,2,0,112.27515689999973,,None,1,Y,V,1,,,364109,brown,2023-11-15_22h51.39.329,experiment,2023.2.2,59.941257567704696,2023-11-15 22h51.58.605274 +0100,
4,0,4,0,3,0,3,0,114.37510269999984,,None,1,I,Y,1,,,364109,brown,2023-11-15_22h51.39.329,experiment,2023.2.2,59.941257567704696,2023-11-15 22h51.58.605274 +0100,
4,0,4,0,4,0,4,0,116.47498259999975,,['space'],1,I,I,1,[0.4304990999999063],[None],364109,brown,2023-11-15_22h51.39.329,experiment,2023.2.2,59.941257567704696,2023-11-15 22h51.58.605274 +0100,
4,0,4,0,5,0,5,0,118.5750579999999,,['space'],1,I,I,1,[0.44177040000022316],[None],364109,brown,2023-11-15_22h51.39.329,experiment,2023.2.2,59.941257567704696,2023-11-15 22h51.58.605274 +0100,
4,0,4,0,6,0,6,0,120.67465589999983,,None,1,R,I,1,,,364109,brown,2023-11-15_22h51.39.329,experiment,2023.2.2,59.941257567704696,2023-11-15 22h51.58.605274 +0100,
4,0,4,0,7,0,7,0,122.7744858000001,,None,1,B,R,1,,,364109,brown,2023-11-15_22h51.39.329,experiment,2023.2.2,59.941257567704696,2023-11-15 22h51.58.605274 +0100,
4,0,4,0,8,0,8,0,124.87439099999983,,['space'],1,B,B,1,[0.37738440000021],[None],364109,brown,2023-11-15_22h51.39.329,experiment,2023.2.2,59.941257567704696,2023-11-15 22h51.58.605274 +0100,
4,0,4,0,9,0,9,0,126.97441320000007,,None,1,S,B,1,,,364109,brown,2023-11-15_22h51.39.329,experiment,2023.2.2,59.941257567704696,2023-11-15 22h51.58.605274 +0100,
4,0,4,0,10,0,10,0,129.07448759999988,,None,1,I,S,1,,,364109,brown,2023-11-15_22h51.39.329,experiment,2023.2.2,59.941257567704696,2023-11-15 22h51.58.605274 +0100,
4,0,4,0,11,0,11,0,131.1742632999999,,['space'],1,I,I,1,[0.37859560000015335],[None],364109,brown,2023-11-15_22h51.39.329,experiment,2023.2.2,59.941257567704696,2023-11-15 22h51.58.605274 +0100,
4,0,4,0,,,,,,,,,,,,,,364109,brown,2023-11-15_22h51.39.329,experiment,2023.2.2,59.941257567704696,2023-11-15 22h51.58.605274 +0100,
5,0,5,0,0,0,0,0,134.1242054999998,,None,1,G,,2,,,364109,brown,2023-11-15_22h51.39.329,experiment,2023.2.2,59.941257567704696,2023-11-15 22h51.58.605274 +0100,
5,0,5,0,1,0,1,0,136.22350529999994,,None,1,L,,2,,,364109,brown,2023-11-15_22h51.39.329,experiment,2023.2.2,59.941257567704696,2023-11-15 22h51.58.605274 +0100,
5,0,5,0,2,0,2,0,138.32389669999975,,None,1,N,G,2,,,364109,brown,2023-11-15_22h51.39.329,experiment,2023.2.2,59.941257567704696,2023-11-15 22h51.58.605274 +0100,
5,0,5,0,3,0,3,0,140.42376620000005,,None,1,D,L,2,,,364109,brown,2023-11-15_22h51.39.329,experiment,2023.2.2,59.941257567704696,2023-11-15 22h51.58.605274 +0100,
5,0,5,0,4,0,4,0,142.52381639999976,,None,1,E,N,2,,,364109,brown,2023-11-15_22h51.39.329,experiment,2023.2.2,59.941257567704696,2023-11-15 22h51.58.605274 +0100,
5,0,5,0,5,0,5,0,144.62464,,None,1,C,D,2,,,364109,brown,2023-11-15_22h51.39.329,experiment,2023.2.2,59.941257567704696,2023-11-15 22h51.58.605274 +0100,
5,0,5,0,6,0,6,0,146.72364119999975,,['space'],1,E,E,2,[0.4246098000003258],[None],364109,brown,2023-11-15_22h51.39.329,experiment,2023.2.2,59.941257567704696,2023-11-15 22h51.58.605274 +0100,
5,0,5,0,7,0,7,0,148.82350189999988,,None,1,D,C,2,,,364109,brown,2023-11-15_22h51.39.329,experiment,2023.2.2,59.941257567704696,2023-11-15 22h51.58.605274 +0100,
5,0,5,0,8,0,8,0,150.9234336999998,,None,1,M,E,2,,,364109,brown,2023-11-15_22h51.39.329,experiment,2023.2.2,59.941257567704696,2023-11-15 22h51.58.605274 +0100,
5,0,5,0,9,0,9,0,153.0232148,,None,1,C,D,2,,,364109,brown,2023-11-15_22h51.39.329,experiment,2023.2.2,59.941257567704696,2023-11-15 22h51.58.605274 +0100,
5,0,5,0,10,0,10,0,155.1231528999997,,['space'],1,M,M,2,[0.3701630999998997],[None],364109,brown,2023-11-15_22h51.39.329,experiment,2023.2.2,59.941257567704696,2023-11-15 22h51.58.605274 +0100,
5,0,5,0,11,0,11,0,157.22301939999988,,['space'],1,C,C,2,[0.4117849999997816],[None],364109,brown,2023-11-15_22h51.39.329,experiment,2023.2.2,59.941257567704696,2023-11-15 22h51.58.605274 +0100,
5,0,5,0,,,,,,,,,,,,,,364109,brown,2023-11-15_22h51.39.329,experiment,2023.2.2,59.941257567704696,2023-11-15 22h51.58.605274 +0100,
6,0,6,0,0,0,0,0,159.9893744000001,,None,1,W,,1,,,364109,brown,2023-11-15_22h51.39.329,experiment,2023.2.2,59.941257567704696,2023-11-15 22h51.58.605274 +0100,
6,0,6,0,1,0,1,0,162.08943670000008,,['space'],1,W,W,1,[0.408124499999758],[None],364109,brown,2023-11-15_22h51.39.329,experiment,2023.2.2,59.941257567704696,2023-11-15 22h51.58.605274 +0100,
6,0,6,0,2,0,2,0,164.1891545999997,,None,1,C,W,1,,,364109,brown,2023-11-15_22h51.39.329,experiment,2023.2.2,59.941257567704696,2023-11-15 22h51.58.605274 +0100,
6,0,6,0,3,0,3,0,166.28924289999986,,None,1,O,C,1,,,364109,brown,2023-11-15_22h51.39.329,experiment,2023.2.2,59.941257567704696,2023-11-15 22h51.58.605274 +0100,
6,0,6,0,4,0,4,0,168.38884319999988,,None,1,F,O,1,,,364109,brown,2023-11-15_22h51.39.329,experiment,2023.2.2,59.941257567704696,2023-11-15 22h51.58.605274 +0100,
6,0,6,0,5,0,5,0,170.48887669999976,,['space'],1,F,F,1,[0.40934859999970286],[None],364109,brown,2023-11-15_22h51.39.329,experiment,2023.2.2,59.941257567704696,2023-11-15 22h51.58.605274 +0100,
6,0,6,0,6,0,6,0,172.58909319999975,,None,1,K,F,1,,,364109,brown,2023-11-15_22h51.39.329,experiment,2023.2.2,59.941257567704696,2023-11-15 22h51.58.605274 +0100,
6,0,6,0,7,0,7,0,174.68879119999974,,['space'],1,K,K,1,[0.36753619999990406],[None],364109,brown,2023-11-15_22h51.39.329,experiment,2023.2.2,59.941257567704696,2023-11-15 22h51.58.605274 +0100,
6,0,6,0,8,0,8,0,176.78872019999972,,['space'],1,K,K,1,[0.408277999999882],[None],364109,brown,2023-11-15_22h51.39.329,experiment,2023.2.2,59.941257567704696,2023-11-15 22h51.58.605274 +0100,
6,0,6,0,9,0,9,0,178.88874669999996,,None,1,X,K,1,,,364109,brown,2023-11-15_22h51.39.329,experiment,2023.2.2,59.941257567704696,2023-11-15 22h51.58.605274 +0100,
6,0,6,0,10,0,10,0,180.98855049999975,,None,1,I,X,1,,,364109,brown,2023-11-15_22h51.39.329,experiment,2023.2.2,59.941257567704696,2023-11-15 22h51.58.605274 +0100,
6,0,6,0,11,0,11,0,183.08848339999986,,None,1,K,I,1,,,364109,brown,2023-11-15_22h51.39.329,experiment,2023.2.2,59.941257567704696,2023-11-15 22h51.58.605274 +0100,
6,0,6,0,,,,,,,,,,,,,,364109,brown,2023-11-15_22h51.39.329,experiment,2023.2.2,59.941257567704696,2023-11-15 22h51.58.605274 +0100,
7,0,7,0,0,0,0,0,185.87150639999982,,None,1,K,,2,,,364109,brown,2023-11-15_22h51.39.329,experiment,2023.2.2,59.941257567704696,2023-11-15 22h51.58.605274 +0100,
7,0,7,0,1,0,1,0,187.97170400000005,,None,1,L,,2,,,364109,brown,2023-11-15_22h51.39.329,experiment,2023.2.2,59.941257567704696,2023-11-15 22h51.58.605274 +0100,
7,0,7,0,2,0,2,0,190.07194439999967,,None,1,U,K,2,,,364109,brown,2023-11-15_22h51.39.329,experiment,2023.2.2,59.941257567704696,2023-11-15 22h51.58.605274 +0100,
7,0,7,0,3,0,3,0,192.1713918999999,,['space'],1,L,L,2,[0.42339300000003277],[None],364109,brown,2023-11-15_22h51.39.329,experiment,2023.2.2,59.941257567704696,2023-11-15 22h51.58.605274 +0100,
7,0,7,0,4,0,4,0,194.2715373000001,,['space'],1,U,U,2,[0.5801975999997921],[None],364109,brown,2023-11-15_22h51.39.329,experiment,2023.2.2,59.941257567704696,2023-11-15 22h51.58.605274 +0100,
7,0,7,0,5,0,5,0,196.3715170999999,,None,1,Z,L,2,,,364109,brown,2023-11-15_22h51.39.329,experiment,2023.2.2,59.941257567704696,2023-11-15 22h51.58.605274 +0100,
7,0,7,0,6,0,6,0,198.47130070000003,,['space'],1,U,U,2,[0.38451820000000225],[None],364109,brown,2023-11-15_22h51.39.329,experiment,2023.2.2,59.941257567704696,2023-11-15 22h51.58.605274 +0100,
7,0,7,0,7,0,7,0,200.57110639999974,,None,1,U,Z,2,,,364109,brown,2023-11-15_22h51.39.329,experiment,2023.2.2,59.941257567704696,2023-11-15 22h51.58.605274 +0100,
7,0,7,0,8,0,8,0,202.6711682,,None,1,T,U,2,,,364109,brown,2023-11-15_22h51.39.329,experiment,2023.2.2,59.941257567704696,2023-11-15 22h51.58.605274 +0100,
7,0,7,0,9,0,9,0,204.77091089999976,,['space'],1,U,U,2,[0.4005342999998902],[None],364109,brown,2023-11-15_22h51.39.329,experiment,2023.2.2,59.941257567704696,2023-11-15 22h51.58.605274 +0100,
7,0,7,0,10,0,10,0,206.87075049999976,,None,1,D,T,2,,,364109,brown,2023-11-15_22h51.39.329,experiment,2023.2.2,59.941257567704696,2023-11-15 22h51.58.605274 +0100,
7,0,7,0,11,0,11,0,208.97086279999985,,None,0,U,U,2,,,364109,brown,2023-11-15_22h51.39.329,experiment,2023.2.2,59.941257567704696,2023-11-15 22h51.58.605274 +0100,
7,0,7,0,,,,,,,,,,,,,,364109,brown,2023-11-15_22h51.39.329,experiment,2023.2.2,59.941257567704696,2023-11-15 22h51.58.605274 +0100,
