trials_3.thisRepN,trials_3.thisTrialN,trials_3.thisN,trials_3.thisIndex,trials.thisRepN,trials.thisTrialN,trials.thisN,trials.thisIndex,thisRow.t,notes,key_resp_2.keys,key_resp_2.corr,letter.routineEndVal,nback.routineEndVal,type.routineEndVal,key_resp_2.rt,key_resp_2.duration,participant,session,date,expName,psychopyVersion,frameRate,expStart,
0,0,0,0,0,0,0,0,2.384478599999966,,None,1,V,,1,,,364109,silence,2023-11-15_22h46.24.071,experiment,2023.2.2,59.91863049975516,2023-11-15 22h46.47.365606 +0100,
0,0,0,0,1,0,1,0,4.483301499999925,,None,1,Z,V,1,,,364109,silence,2023-11-15_22h46.24.071,experiment,2023.2.2,59.91863049975516,2023-11-15 22h46.47.365606 +0100,
0,0,0,0,2,0,2,0,6.583018799999991,,['space'],1,Z,Z,1,[0.38449980000018513],[None],364109,silence,2023-11-15_22h46.24.071,experiment,2023.2.2,59.91863049975516,2023-11-15 22h46.47.365606 +0100,
0,0,0,0,3,0,3,0,8.683220500000061,,['space'],1,Z,Z,1,[0.39521029999991697],[None],364109,silence,2023-11-15_22h46.24.071,experiment,2023.2.2,59.91863049975516,2023-11-15 22h46.47.365606 +0100,
0,0,0,0,4,0,4,0,10.78725459999987,,None,1,C,Z,1,,,364109,silence,2023-11-15_22h46.24.071,experiment,2023.2.2,59.91863049975516,2023-11-15 22h46.47.365606 +0100,
0,0,0,0,5,0,5,0,12.882791199999929,,['space'],0,G,C,1,[0.3507210000000214],[None],364109,silence,2023-11-15_22h46.24.071,experiment,2023.2.2,59.91863049975516,2023-11-15 22h46.47.365606 +0100,
0,0,0,0,6,0,6,0,14.983116500000051,,None,1,P,G,1,,,364109,silence,2023-11-15_22h46.24.071,experiment,2023.2.2,59.91863049975516,2023-11-15 22h46.47.365606 +0100,
0,0,0,0,7,0,7,0,17.082529300000033,,None,1,Q,P,1,,,364109,silence,2023-11-15_22h46.24.071,experiment,2023.2.2,59.91863049975516,2023-11-15 22h46.47.365606 +0100,
0,0,0,0,8,0,8,0,19.182805299999927,,None,1,L,Q,1,,,364109,silence,2023-11-15_22h46.24.071,experiment,2023.2.2,59.91863049975516,2023-11-15 22h46.47.365606 +0100,
0,0,0,0,9,0,9,0,21.282582899999852,,['space'],1,L,L,1,[0.560827899999822],[None],364109,silence,2023-11-15_22h46.24.071,experiment,2023.2.2,59.91863049975516,2023-11-15 22h46.47.365606 +0100,
0,0,0,0,10,0,10,0,23.384391999999934,,None,1,M,L,1,,,364109,silence,2023-11-15_22h46.24.071,experiment,2023.2.2,59.91863049975516,2023-11-15 22h46.47.365606 +0100,
0,0,0,0,11,0,11,0,25.48244920000002,,['space'],1,M,M,1,[0.4245972000001075],[None],364109,silence,2023-11-15_22h46.24.071,experiment,2023.2.2,59.91863049975516,2023-11-15 22h46.47.365606 +0100,
0,0,0,0,,,,,,,,,,,,,,364109,silence,2023-11-15_22h46.24.071,experiment,2023.2.2,59.91863049975516,2023-11-15 22h46.47.365606 +0100,
1,0,1,0,0,0,0,0,29.44910630000004,,None,1,M,,1,,,364109,silence,2023-11-15_22h46.24.071,experiment,2023.2.2,59.91863049975516,2023-11-15 22h46.47.365606 +0100,
1,0,1,0,1,0,1,0,31.54907000000003,,['space'],1,M,M,1,[0.38477609999995366],[None],364109,silence,2023-11-15_22h46.24.071,experiment,2023.2.2,59.91863049975516,2023-11-15 22h46.47.365606 +0100,
1,0,1,0,2,0,2,0,33.64869299999987,,None,1,N,M,1,,,364109,silence,2023-11-15_22h46.24.071,experiment,2023.2.2,59.91863049975516,2023-11-15 22h46.47.365606 +0100,
1,0,1,0,3,0,3,0,35.74876900000004,,['space'],1,N,N,1,[0.36736080000014226],[None],364109,silence,2023-11-15_22h46.24.071,experiment,2023.2.2,59.91863049975516,2023-11-15 22h46.47.365606 +0100,
1,0,1,0,4,0,4,0,37.84878069999991,,None,1,Q,N,1,,,364109,silence,2023-11-15_22h46.24.071,experiment,2023.2.2,59.91863049975516,2023-11-15 22h46.47.365606 +0100,
1,0,1,0,5,0,5,0,39.94864370000005,,['space'],1,Q,Q,1,[0.38266879999991943],[None],364109,silence,2023-11-15_22h46.24.071,experiment,2023.2.2,59.91863049975516,2023-11-15 22h46.47.365606 +0100,
1,0,1,0,6,0,6,0,42.05027649999988,,None,1,S,Q,1,,,364109,silence,2023-11-15_22h46.24.071,experiment,2023.2.2,59.91863049975516,2023-11-15 22h46.47.365606 +0100,
1,0,1,0,7,0,7,0,44.14817900000003,,None,1,U,S,1,,,364109,silence,2023-11-15_22h46.24.071,experiment,2023.2.2,59.91863049975516,2023-11-15 22h46.47.365606 +0100,
1,0,1,0,8,0,8,0,46.24835770000004,,['space'],1,U,U,1,[0.3949181000000408],[None],364109,silence,2023-11-15_22h46.24.071,experiment,2023.2.2,59.91863049975516,2023-11-15 22h46.47.365606 +0100,
1,0,1,0,9,0,9,0,48.348216500000035,,None,1,Q,U,1,,,364109,silence,2023-11-15_22h46.24.071,experiment,2023.2.2,59.91863049975516,2023-11-15 22h46.47.365606 +0100,
1,0,1,0,10,0,10,0,50.44819830000006,,None,1,P,Q,1,,,364109,silence,2023-11-15_22h46.24.071,experiment,2023.2.2,59.91863049975516,2023-11-15 22h46.47.365606 +0100,
1,0,1,0,11,0,11,0,52.54796549999992,,['space'],1,P,P,1,[0.4087211999999454],[None],364109,silence,2023-11-15_22h46.24.071,experiment,2023.2.2,59.91863049975516,2023-11-15 22h46.47.365606 +0100,
1,0,1,0,,,,,,,,,,,,,,364109,silence,2023-11-15_22h46.24.071,experiment,2023.2.2,59.91863049975516,2023-11-15 22h46.47.365606 +0100,
2,0,2,0,0,0,0,0,59.44889039999998,,None,1,H,,2,,,364109,silence,2023-11-15_22h46.24.071,experiment,2023.2.2,59.91863049975516,2023-11-15 22h46.47.365606 +0100,
2,0,2,0,1,0,1,0,61.547444699999915,,None,1,E,,2,,,364109,silence,2023-11-15_22h46.24.071,experiment,2023.2.2,59.91863049975516,2023-11-15 22h46.47.365606 +0100,
2,0,2,0,2,0,2,0,63.64760649999994,,['space'],1,H,H,2,[0.5506130999999641],[None],364109,silence,2023-11-15_22h46.24.071,experiment,2023.2.2,59.91863049975516,2023-11-15 22h46.47.365606 +0100,
2,0,2,0,3,0,3,0,65.74744799999985,,None,1,Q,E,2,,,364109,silence,2023-11-15_22h46.24.071,experiment,2023.2.2,59.91863049975516,2023-11-15 22h46.47.365606 +0100,
2,0,2,0,4,0,4,0,67.84720160000006,,None,1,J,H,2,,,364109,silence,2023-11-15_22h46.24.071,experiment,2023.2.2,59.91863049975516,2023-11-15 22h46.47.365606 +0100,
2,0,2,0,5,0,5,0,69.94723169999997,,['space'],1,Q,Q,2,[0.3860322000000451],[None],364109,silence,2023-11-15_22h46.24.071,experiment,2023.2.2,59.91863049975516,2023-11-15 22h46.47.365606 +0100,
2,0,2,0,6,0,6,0,72.04722420000007,,['space'],1,J,J,2,[0.4326765999999225],[None],364109,silence,2023-11-15_22h46.24.071,experiment,2023.2.2,59.91863049975516,2023-11-15 22h46.47.365606 +0100,
2,0,2,0,7,0,7,0,74.1471881,,None,1,Z,Q,2,,,364109,silence,2023-11-15_22h46.24.071,experiment,2023.2.2,59.91863049975516,2023-11-15 22h46.47.365606 +0100,
2,0,2,0,8,0,8,0,76.24701460000006,,None,1,G,J,2,,,364109,silence,2023-11-15_22h46.24.071,experiment,2023.2.2,59.91863049975516,2023-11-15 22h46.47.365606 +0100,
2,0,2,0,9,0,9,0,78.3474506,,None,1,W,Z,2,,,364109,silence,2023-11-15_22h46.24.071,experiment,2023.2.2,59.91863049975516,2023-11-15 22h46.47.365606 +0100,
2,0,2,0,10,0,10,0,80.44668079999997,,None,1,P,G,2,,,364109,silence,2023-11-15_22h46.24.071,experiment,2023.2.2,59.91863049975516,2023-11-15 22h46.47.365606 +0100,
2,0,2,0,11,0,11,0,82.54667130000007,,None,1,Q,W,2,,,364109,silence,2023-11-15_22h46.24.071,experiment,2023.2.2,59.91863049975516,2023-11-15 22h46.47.365606 +0100,
2,0,2,0,,,,,,,,,,,,,,364109,silence,2023-11-15_22h46.24.071,experiment,2023.2.2,59.91863049975516,2023-11-15 22h46.47.365606 +0100,
3,0,3,0,0,0,0,0,86.18036570000004,,None,1,A,,1,,,364109,silence,2023-11-15_22h46.24.071,experiment,2023.2.2,59.91863049975516,2023-11-15 22h46.47.365606 +0100,
3,0,3,0,1,0,1,0,88.27968039999996,,None,1,Q,A,1,,,364109,silence,2023-11-15_22h46.24.071,experiment,2023.2.2,59.91863049975516,2023-11-15 22h46.47.365606 +0100,
3,0,3,0,2,0,2,0,90.37966929999993,,['space'],1,Q,Q,1,[0.4340747999999621],[None],364109,silence,2023-11-15_22h46.24.071,experiment,2023.2.2,59.91863049975516,2023-11-15 22h46.47.365606 +0100,
3,0,3,0,3,0,3,0,92.47941760000003,,None,1,Z,Q,1,,,364109,silence,2023-11-15_22h46.24.071,experiment,2023.2.2,59.91863049975516,2023-11-15 22h46.47.365606 +0100,
3,0,3,0,4,0,4,0,94.57941719999985,,['space'],1,Z,Z,1,[0.39388510000003407],[None],364109,silence,2023-11-15_22h46.24.071,experiment,2023.2.2,59.91863049975516,2023-11-15 22h46.47.365606 +0100,
3,0,3,0,5,0,5,0,96.67920759999993,,['space'],1,Z,Z,1,[0.5007098999999471],[None],364109,silence,2023-11-15_22h46.24.071,experiment,2023.2.2,59.91863049975516,2023-11-15 22h46.47.365606 +0100,
3,0,3,0,6,0,6,0,98.77887480000004,,None,1,C,Z,1,,,364109,silence,2023-11-15_22h46.24.071,experiment,2023.2.2,59.91863049975516,2023-11-15 22h46.47.365606 +0100,
3,0,3,0,7,0,7,0,100.8789228999999,,None,1,U,C,1,,,364109,silence,2023-11-15_22h46.24.071,experiment,2023.2.2,59.91863049975516,2023-11-15 22h46.47.365606 +0100,
3,0,3,0,8,0,8,0,102.97902920000001,,None,1,C,U,1,,,364109,silence,2023-11-15_22h46.24.071,experiment,2023.2.2,59.91863049975516,2023-11-15 22h46.47.365606 +0100,
3,0,3,0,9,0,9,0,105.07874539999989,,None,1,Z,C,1,,,364109,silence,2023-11-15_22h46.24.071,experiment,2023.2.2,59.91863049975516,2023-11-15 22h46.47.365606 +0100,
3,0,3,0,10,0,10,0,107.17874200000006,,['space'],1,Z,Z,1,[0.41288029999986975],[None],364109,silence,2023-11-15_22h46.24.071,experiment,2023.2.2,59.91863049975516,2023-11-15 22h46.47.365606 +0100,
3,0,3,0,11,0,11,0,109.2786564999999,,['space'],1,Z,Z,1,[0.49549050000018724],[None],364109,silence,2023-11-15_22h46.24.071,experiment,2023.2.2,59.91863049975516,2023-11-15 22h46.47.365606 +0100,
3,0,3,0,,,,,,,,,,,,,,364109,silence,2023-11-15_22h46.24.071,experiment,2023.2.2,59.91863049975516,2023-11-15 22h46.47.365606 +0100,
4,0,4,0,0,0,0,0,112.66297829999985,,None,1,R,,2,,,364109,silence,2023-11-15_22h46.24.071,experiment,2023.2.2,59.91863049975516,2023-11-15 22h46.47.365606 +0100,
4,0,4,0,1,0,1,0,114.76170290000005,,None,1,R,,2,,,364109,silence,2023-11-15_22h46.24.071,experiment,2023.2.2,59.91863049975516,2023-11-15 22h46.47.365606 +0100,
4,0,4,0,2,0,2,0,116.86177120000002,,['space'],1,R,R,2,[0.6568431000000601],[None],364109,silence,2023-11-15_22h46.24.071,experiment,2023.2.2,59.91863049975516,2023-11-15 22h46.47.365606 +0100,
4,0,4,0,3,0,3,0,118.96193249999988,,None,1,D,R,2,,,364109,silence,2023-11-15_22h46.24.071,experiment,2023.2.2,59.91863049975516,2023-11-15 22h46.47.365606 +0100,
4,0,4,0,4,0,4,0,121.0617256999999,,None,1,M,R,2,,,364109,silence,2023-11-15_22h46.24.071,experiment,2023.2.2,59.91863049975516,2023-11-15 22h46.47.365606 +0100,
4,0,4,0,5,0,5,0,123.16159560000006,,['space'],1,D,D,2,[0.49678039999980683],[None],364109,silence,2023-11-15_22h46.24.071,experiment,2023.2.2,59.91863049975516,2023-11-15 22h46.47.365606 +0100,
4,0,4,0,6,0,6,0,125.26151959999993,,['space'],1,M,M,2,[0.427091899999823],[None],364109,silence,2023-11-15_22h46.24.071,experiment,2023.2.2,59.91863049975516,2023-11-15 22h46.47.365606 +0100,
4,0,4,0,7,0,7,0,127.3616442,,None,1,S,D,2,,,364109,silence,2023-11-15_22h46.24.071,experiment,2023.2.2,59.91863049975516,2023-11-15 22h46.47.365606 +0100,
4,0,4,0,8,0,8,0,129.46144170000002,,None,1,E,M,2,,,364109,silence,2023-11-15_22h46.24.071,experiment,2023.2.2,59.91863049975516,2023-11-15 22h46.47.365606 +0100,
4,0,4,0,9,0,9,0,131.5613616999999,,['space'],1,S,S,2,[0.44795429999999214],[None],364109,silence,2023-11-15_22h46.24.071,experiment,2023.2.2,59.91863049975516,2023-11-15 22h46.47.365606 +0100,
4,0,4,0,10,0,10,0,133.66132049999987,,None,1,V,E,2,,,364109,silence,2023-11-15_22h46.24.071,experiment,2023.2.2,59.91863049975516,2023-11-15 22h46.47.365606 +0100,
4,0,4,0,11,0,11,0,135.76106119999986,,None,1,D,S,2,,,364109,silence,2023-11-15_22h46.24.071,experiment,2023.2.2,59.91863049975516,2023-11-15 22h46.47.365606 +0100,
4,0,4,0,,,,,,,,,,,,,,364109,silence,2023-11-15_22h46.24.071,experiment,2023.2.2,59.91863049975516,2023-11-15 22h46.47.365606 +0100,
5,0,5,0,0,0,0,0,138.7610505,,None,1,V,,2,,,364109,silence,2023-11-15_22h46.24.071,experiment,2023.2.2,59.91863049975516,2023-11-15 22h46.47.365606 +0100,
5,0,5,0,1,0,1,0,140.86071930000003,,None,1,J,,2,,,364109,silence,2023-11-15_22h46.24.071,experiment,2023.2.2,59.91863049975516,2023-11-15 22h46.47.365606 +0100,
5,0,5,0,2,0,2,0,142.96051549999993,,['space'],1,V,V,2,[0.4403171999999813],[None],364109,silence,2023-11-15_22h46.24.071,experiment,2023.2.2,59.91863049975516,2023-11-15 22h46.47.365606 +0100,
5,0,5,0,3,0,3,0,145.06195359999992,,None,1,B,J,2,,,364109,silence,2023-11-15_22h46.24.071,experiment,2023.2.2,59.91863049975516,2023-11-15 22h46.47.365606 +0100,
5,0,5,0,4,0,4,0,147.16075509999996,,['space'],1,V,V,2,[0.41063550000012583],[None],364109,silence,2023-11-15_22h46.24.071,experiment,2023.2.2,59.91863049975516,2023-11-15 22h46.47.365606 +0100,
5,0,5,0,5,0,5,0,149.26007589999995,,None,1,X,B,2,,,364109,silence,2023-11-15_22h46.24.071,experiment,2023.2.2,59.91863049975516,2023-11-15 22h46.47.365606 +0100,
5,0,5,0,6,0,6,0,151.36042410000005,,['space'],1,V,V,2,[0.4931116000000202],[None],364109,silence,2023-11-15_22h46.24.071,experiment,2023.2.2,59.91863049975516,2023-11-15 22h46.47.365606 +0100,
5,0,5,0,7,0,7,0,153.4604491,,['space'],1,X,X,2,[0.7205690999999206],[None],364109,silence,2023-11-15_22h46.24.071,experiment,2023.2.2,59.91863049975516,2023-11-15 22h46.47.365606 +0100,
5,0,5,0,8,0,8,0,155.5602712,,None,1,R,V,2,,,364109,silence,2023-11-15_22h46.24.071,experiment,2023.2.2,59.91863049975516,2023-11-15 22h46.47.365606 +0100,
5,0,5,0,9,0,9,0,157.66006029999994,,['space'],1,X,X,2,[0.6927140999998755],[None],364109,silence,2023-11-15_22h46.24.071,experiment,2023.2.2,59.91863049975516,2023-11-15 22h46.47.365606 +0100,
5,0,5,0,10,0,10,0,159.75981120000006,,None,1,N,R,2,,,364109,silence,2023-11-15_22h46.24.071,experiment,2023.2.2,59.91863049975516,2023-11-15 22h46.47.365606 +0100,
5,0,5,0,11,0,11,0,161.8599623,,['space'],1,X,X,2,[0.38712199999986296],[None],364109,silence,2023-11-15_22h46.24.071,experiment,2023.2.2,59.91863049975516,2023-11-15 22h46.47.365606 +0100,
5,0,5,0,,,,,,,,,,,,,,364109,silence,2023-11-15_22h46.24.071,experiment,2023.2.2,59.91863049975516,2023-11-15 22h46.47.365606 +0100,
6,0,6,0,0,0,0,0,164.84329819999994,,None,1,S,,1,,,364109,silence,2023-11-15_22h46.24.071,experiment,2023.2.2,59.91863049975516,2023-11-15 22h46.47.365606 +0100,
6,0,6,0,1,0,1,0,166.9429972999999,,['space'],1,S,S,1,[0.47147929999982807],[None],364109,silence,2023-11-15_22h46.24.071,experiment,2023.2.2,59.91863049975516,2023-11-15 22h46.47.365606 +0100,
6,0,6,0,2,0,2,0,169.04548899999986,,None,1,K,S,1,,,364109,silence,2023-11-15_22h46.24.071,experiment,2023.2.2,59.91863049975516,2023-11-15 22h46.47.365606 +0100,
6,0,6,0,3,0,3,0,171.14254809999989,,None,1,D,K,1,,,364109,silence,2023-11-15_22h46.24.071,experiment,2023.2.2,59.91863049975516,2023-11-15 22h46.47.365606 +0100,
6,0,6,0,4,0,4,0,173.2427866999999,,None,1,G,D,1,,,364109,silence,2023-11-15_22h46.24.071,experiment,2023.2.2,59.91863049975516,2023-11-15 22h46.47.365606 +0100,
6,0,6,0,5,0,5,0,175.34260889999996,,None,1,Z,G,1,,,364109,silence,2023-11-15_22h46.24.071,experiment,2023.2.2,59.91863049975516,2023-11-15 22h46.47.365606 +0100,
6,0,6,0,6,0,6,0,177.44250590000001,,None,1,A,Z,1,,,364109,silence,2023-11-15_22h46.24.071,experiment,2023.2.2,59.91863049975516,2023-11-15 22h46.47.365606 +0100,
6,0,6,0,7,0,7,0,179.54236659999992,,['space'],1,A,A,1,[0.4538880000000063],[None],364109,silence,2023-11-15_22h46.24.071,experiment,2023.2.2,59.91863049975516,2023-11-15 22h46.47.365606 +0100,
6,0,6,0,8,0,8,0,181.64241900000002,,None,1,L,A,1,,,364109,silence,2023-11-15_22h46.24.071,experiment,2023.2.2,59.91863049975516,2023-11-15 22h46.47.365606 +0100,
6,0,6,0,9,0,9,0,183.74224170000002,,None,1,D,L,1,,,364109,silence,2023-11-15_22h46.24.071,experiment,2023.2.2,59.91863049975516,2023-11-15 22h46.47.365606 +0100,
6,0,6,0,10,0,10,0,185.8422083999999,,None,1,B,D,1,,,364109,silence,2023-11-15_22h46.24.071,experiment,2023.2.2,59.91863049975516,2023-11-15 22h46.47.365606 +0100,
6,0,6,0,11,0,11,0,187.94215329999997,,None,1,H,B,1,,,364109,silence,2023-11-15_22h46.24.071,experiment,2023.2.2,59.91863049975516,2023-11-15 22h46.47.365606 +0100,
6,0,6,0,,,,,,,,,,,,,,364109,silence,2023-11-15_22h46.24.071,experiment,2023.2.2,59.91863049975516,2023-11-15 22h46.47.365606 +0100,
7,0,7,0,0,0,0,0,191.00866180000003,,None,1,H,,2,,,364109,silence,2023-11-15_22h46.24.071,experiment,2023.2.2,59.91863049975516,2023-11-15 22h46.47.365606 +0100,
7,0,7,0,1,0,1,0,193.1083561999999,,None,1,Y,,2,,,364109,silence,2023-11-15_22h46.24.071,experiment,2023.2.2,59.91863049975516,2023-11-15 22h46.47.365606 +0100,
7,0,7,0,2,0,2,0,195.20848929999988,,None,1,M,H,2,,,364109,silence,2023-11-15_22h46.24.071,experiment,2023.2.2,59.91863049975516,2023-11-15 22h46.47.365606 +0100,
7,0,7,0,3,0,3,0,197.30821019999985,,['space'],1,Y,Y,2,[0.4171385999998165],[None],364109,silence,2023-11-15_22h46.24.071,experiment,2023.2.2,59.91863049975516,2023-11-15 22h46.47.365606 +0100,
7,0,7,0,4,0,4,0,199.40813879999996,,None,1,P,M,2,,,364109,silence,2023-11-15_22h46.24.071,experiment,2023.2.2,59.91863049975516,2023-11-15 22h46.47.365606 +0100,
7,0,7,0,5,0,5,0,201.5081356999999,,['space'],1,Y,Y,2,[0.6597068999999465],[None],364109,silence,2023-11-15_22h46.24.071,experiment,2023.2.2,59.91863049975516,2023-11-15 22h46.47.365606 +0100,
7,0,7,0,6,0,6,0,203.6080050999999,,['space'],1,P,P,2,[0.44281709999995655],[None],364109,silence,2023-11-15_22h46.24.071,experiment,2023.2.2,59.91863049975516,2023-11-15 22h46.47.365606 +0100,
7,0,7,0,7,0,7,0,205.70785920000003,,None,1,W,Y,2,,,364109,silence,2023-11-15_22h46.24.071,experiment,2023.2.2,59.91863049975516,2023-11-15 22h46.47.365606 +0100,
7,0,7,0,8,0,8,0,207.80779280000002,,None,1,K,P,2,,,364109,silence,2023-11-15_22h46.24.071,experiment,2023.2.2,59.91863049975516,2023-11-15 22h46.47.365606 +0100,
7,0,7,0,9,0,9,0,209.90770569999995,,['space'],0,K,W,2,[0.49530570000001717],[None],364109,silence,2023-11-15_22h46.24.071,experiment,2023.2.2,59.91863049975516,2023-11-15 22h46.47.365606 +0100,
7,0,7,0,10,0,10,0,212.00781159999997,,['space'],1,K,K,2,[0.49911520000000564],[None],364109,silence,2023-11-15_22h46.24.071,experiment,2023.2.2,59.91863049975516,2023-11-15 22h46.47.365606 +0100,
7,0,7,0,11,0,11,0,214.10766179999996,,None,1,V,K,2,,,364109,silence,2023-11-15_22h46.24.071,experiment,2023.2.2,59.91863049975516,2023-11-15 22h46.47.365606 +0100,
7,0,7,0,,,,,,,,,,,,,,364109,silence,2023-11-15_22h46.24.071,experiment,2023.2.2,59.91863049975516,2023-11-15 22h46.47.365606 +0100,
