trials_3.thisRepN,trials_3.thisTrialN,trials_3.thisN,trials_3.thisIndex,trials.thisRepN,trials.thisTrialN,trials.thisN,trials.thisIndex,thisRow.t,notes,key_resp_2.keys,key_resp_2.corr,letter.routineEndVal,nback.routineEndVal,type.routineEndVal,key_resp_2.rt,key_resp_2.duration,participant,session,date,expName,psychopyVersion,frameRate,expStart,
0,0,0,0,0,0,0,0,3.0403464000000895,,None,1,S,,1,,,364109,pink,2023-11-15_22h41.01.532,experiment,2023.2.2,59.88411226594687,2023-11-15 22h41.30.001117 +0100,
0,0,0,0,1,0,1,0,5.128726099999994,,['space'],1,S,S,1,[0.45396660000005795],[None],364109,pink,2023-11-15_22h41.01.532,experiment,2023.2.2,59.88411226594687,2023-11-15 22h41.30.001117 +0100,
0,0,0,0,2,0,2,0,7.228784399999995,,None,1,G,S,1,,,364109,pink,2023-11-15_22h41.01.532,experiment,2023.2.2,59.88411226594687,2023-11-15 22h41.30.001117 +0100,
0,0,0,0,3,0,3,0,9.328615100000206,,None,1,U,G,1,,,364109,pink,2023-11-15_22h41.01.532,experiment,2023.2.2,59.88411226594687,2023-11-15 22h41.30.001117 +0100,
0,0,0,0,4,0,4,0,11.428451300000006,,None,1,H,U,1,,,364109,pink,2023-11-15_22h41.01.532,experiment,2023.2.2,59.88411226594687,2023-11-15 22h41.30.001117 +0100,
0,0,0,0,5,0,5,0,13.528563900000108,,None,1,W,H,1,,,364109,pink,2023-11-15_22h41.01.532,experiment,2023.2.2,59.88411226594687,2023-11-15 22h41.30.001117 +0100,
0,0,0,0,6,0,6,0,15.628358800000115,,['space'],1,W,W,1,[0.3905956999999489],[None],364109,pink,2023-11-15_22h41.01.532,experiment,2023.2.2,59.88411226594687,2023-11-15 22h41.30.001117 +0100,
0,0,0,0,7,0,7,0,17.728417100000115,,['space'],1,W,W,1,[0.4505997999999636],[None],364109,pink,2023-11-15_22h41.01.532,experiment,2023.2.2,59.88411226594687,2023-11-15 22h41.30.001117 +0100,
0,0,0,0,8,0,8,0,19.828232900000103,,['space'],1,W,W,1,[0.41188050000005205],[None],364109,pink,2023-11-15_22h41.01.532,experiment,2023.2.2,59.88411226594687,2023-11-15 22h41.30.001117 +0100,
0,0,0,0,9,0,9,0,21.9292011,,None,1,O,W,1,,,364109,pink,2023-11-15_22h41.01.532,experiment,2023.2.2,59.88411226594687,2023-11-15 22h41.30.001117 +0100,
0,0,0,0,10,0,10,0,24.02806480000004,,None,1,R,O,1,,,364109,pink,2023-11-15_22h41.01.532,experiment,2023.2.2,59.88411226594687,2023-11-15 22h41.30.001117 +0100,
0,0,0,0,11,0,11,0,26.127940500000022,,['space'],1,R,R,1,[0.3875718000001598],[None],364109,pink,2023-11-15_22h41.01.532,experiment,2023.2.2,59.88411226594687,2023-11-15 22h41.30.001117 +0100,
0,0,0,0,,,,,,,,,,,,,,364109,pink,2023-11-15_22h41.01.532,experiment,2023.2.2,59.88411226594687,2023-11-15 22h41.30.001117 +0100,
1,0,1,0,0,0,0,0,30.162916800000175,,None,1,K,,2,,,364109,pink,2023-11-15_22h41.01.532,experiment,2023.2.2,59.88411226594687,2023-11-15 22h41.30.001117 +0100,
1,0,1,0,1,0,1,0,32.26101330000006,,None,1,I,,2,,,364109,pink,2023-11-15_22h41.01.532,experiment,2023.2.2,59.88411226594687,2023-11-15 22h41.30.001117 +0100,
1,0,1,0,2,0,2,0,34.36094980000007,,None,1,L,K,2,,,364109,pink,2023-11-15_22h41.01.532,experiment,2023.2.2,59.88411226594687,2023-11-15 22h41.30.001117 +0100,
1,0,1,0,3,0,3,0,36.46119040000008,,['space'],1,I,I,2,[0.5257766999998239],[None],364109,pink,2023-11-15_22h41.01.532,experiment,2023.2.2,59.88411226594687,2023-11-15 22h41.30.001117 +0100,
1,0,1,0,4,0,4,0,38.56106150000005,,['space'],0,T,L,2,[0.5627889000002142],[None],364109,pink,2023-11-15_22h41.01.532,experiment,2023.2.2,59.88411226594687,2023-11-15 22h41.30.001117 +0100,
1,0,1,0,5,0,5,0,40.66085430000021,,None,1,O,I,2,,,364109,pink,2023-11-15_22h41.01.532,experiment,2023.2.2,59.88411226594687,2023-11-15 22h41.30.001117 +0100,
1,0,1,0,6,0,6,0,42.76077290000012,,['space'],1,T,T,2,[0.5637977999999748],[None],364109,pink,2023-11-15_22h41.01.532,experiment,2023.2.2,59.88411226594687,2023-11-15 22h41.30.001117 +0100,
1,0,1,0,7,0,7,0,44.86054910000007,,None,1,V,O,2,,,364109,pink,2023-11-15_22h41.01.532,experiment,2023.2.2,59.88411226594687,2023-11-15 22h41.30.001117 +0100,
1,0,1,0,8,0,8,0,46.960454100000106,,['space'],1,T,T,2,[0.7005972999997994],[None],364109,pink,2023-11-15_22h41.01.532,experiment,2023.2.2,59.88411226594687,2023-11-15 22h41.30.001117 +0100,
1,0,1,0,9,0,9,0,49.06059210000012,,None,1,B,V,2,,,364109,pink,2023-11-15_22h41.01.532,experiment,2023.2.2,59.88411226594687,2023-11-15 22h41.30.001117 +0100,
1,0,1,0,10,0,10,0,51.160246500000085,,['space'],1,T,T,2,[0.38399679999997716],[None],364109,pink,2023-11-15_22h41.01.532,experiment,2023.2.2,59.88411226594687,2023-11-15 22h41.30.001117 +0100,
1,0,1,0,11,0,11,0,53.26033150000012,,['space'],1,B,B,2,[0.3848806000000877],[None],364109,pink,2023-11-15_22h41.01.532,experiment,2023.2.2,59.88411226594687,2023-11-15 22h41.30.001117 +0100,
1,0,1,0,,,,,,,,,,,,,,364109,pink,2023-11-15_22h41.01.532,experiment,2023.2.2,59.88411226594687,2023-11-15 22h41.30.001117 +0100,
2,0,2,0,0,0,0,0,57.343441299999995,,None,1,R,,2,,,364109,pink,2023-11-15_22h41.01.532,experiment,2023.2.2,59.88411226594687,2023-11-15 22h41.30.001117 +0100,
2,0,2,0,1,0,1,0,59.44373400000018,,None,1,V,,2,,,364109,pink,2023-11-15_22h41.01.532,experiment,2023.2.2,59.88411226594687,2023-11-15 22h41.30.001117 +0100,
2,0,2,0,2,0,2,0,61.543263100000104,,['space'],1,R,R,2,[0.3968583999999282],[None],364109,pink,2023-11-15_22h41.01.532,experiment,2023.2.2,59.88411226594687,2023-11-15 22h41.30.001117 +0100,
2,0,2,0,3,0,3,0,63.64337020000016,,None,1,H,V,2,,,364109,pink,2023-11-15_22h41.01.532,experiment,2023.2.2,59.88411226594687,2023-11-15 22h41.30.001117 +0100,
2,0,2,0,4,0,4,0,65.7428123000002,,['space'],1,R,R,2,[0.4070176000000174],[None],364109,pink,2023-11-15_22h41.01.532,experiment,2023.2.2,59.88411226594687,2023-11-15 22h41.30.001117 +0100,
2,0,2,0,5,0,5,0,67.84257769999999,,None,1,P,H,2,,,364109,pink,2023-11-15_22h41.01.532,experiment,2023.2.2,59.88411226594687,2023-11-15 22h41.30.001117 +0100,
2,0,2,0,6,0,6,0,69.9427399000001,,['space'],1,R,R,2,[0.4153991999999107],[None],364109,pink,2023-11-15_22h41.01.532,experiment,2023.2.2,59.88411226594687,2023-11-15 22h41.30.001117 +0100,
2,0,2,0,7,0,7,0,72.04280850000009,,None,1,I,P,2,,,364109,pink,2023-11-15_22h41.01.532,experiment,2023.2.2,59.88411226594687,2023-11-15 22h41.30.001117 +0100,
2,0,2,0,8,0,8,0,74.14232510000011,,None,1,F,R,2,,,364109,pink,2023-11-15_22h41.01.532,experiment,2023.2.2,59.88411226594687,2023-11-15 22h41.30.001117 +0100,
2,0,2,0,9,0,9,0,76.2427047000001,,['space'],1,I,I,2,[0.4611809999998968],[None],364109,pink,2023-11-15_22h41.01.532,experiment,2023.2.2,59.88411226594687,2023-11-15 22h41.30.001117 +0100,
2,0,2,0,10,0,10,0,78.34245800000008,,None,1,W,F,2,,,364109,pink,2023-11-15_22h41.01.532,experiment,2023.2.2,59.88411226594687,2023-11-15 22h41.30.001117 +0100,
2,0,2,0,11,0,11,0,80.44244600000002,,['space'],1,I,I,2,[0.5936830000000555],[None],364109,pink,2023-11-15_22h41.01.532,experiment,2023.2.2,59.88411226594687,2023-11-15 22h41.30.001117 +0100,
2,0,2,0,,,,,,,,,,,,,,364109,pink,2023-11-15_22h41.01.532,experiment,2023.2.2,59.88411226594687,2023-11-15 22h41.30.001117 +0100,
3,0,3,0,0,0,0,0,133.7399349000002,,None,1,I,,2,,,364109,pink,2023-11-15_22h41.01.532,experiment,2023.2.2,59.88411226594687,2023-11-15 22h41.30.001117 +0100,
3,0,3,0,1,0,1,0,135.83986200000004,,None,1,E,,2,,,364109,pink,2023-11-15_22h41.01.532,experiment,2023.2.2,59.88411226594687,2023-11-15 22h41.30.001117 +0100,
3,0,3,0,2,0,2,0,137.93983220000018,,None,1,D,I,2,,,364109,pink,2023-11-15_22h41.01.532,experiment,2023.2.2,59.88411226594687,2023-11-15 22h41.30.001117 +0100,
3,0,3,0,3,0,3,0,140.03974340000013,,None,1,Q,E,2,,,364109,pink,2023-11-15_22h41.01.532,experiment,2023.2.2,59.88411226594687,2023-11-15 22h41.30.001117 +0100,
3,0,3,0,4,0,4,0,142.13978110000016,,['space'],1,D,D,2,[0.4460678000000371],[None],364109,pink,2023-11-15_22h41.01.532,experiment,2023.2.2,59.88411226594687,2023-11-15 22h41.30.001117 +0100,
3,0,3,0,5,0,5,0,144.23925740000004,,None,1,N,Q,2,,,364109,pink,2023-11-15_22h41.01.532,experiment,2023.2.2,59.88411226594687,2023-11-15 22h41.30.001117 +0100,
3,0,3,0,6,0,6,0,146.33937600000013,,None,1,U,D,2,,,364109,pink,2023-11-15_22h41.01.532,experiment,2023.2.2,59.88411226594687,2023-11-15 22h41.30.001117 +0100,
3,0,3,0,7,0,7,0,148.43954280000003,,None,1,Q,N,2,,,364109,pink,2023-11-15_22h41.01.532,experiment,2023.2.2,59.88411226594687,2023-11-15 22h41.30.001117 +0100,
3,0,3,0,8,0,8,0,150.53947310000012,,None,0,U,U,2,,,364109,pink,2023-11-15_22h41.01.532,experiment,2023.2.2,59.88411226594687,2023-11-15 22h41.30.001117 +0100,
3,0,3,0,9,0,9,0,152.64031280000017,,None,1,M,Q,2,,,364109,pink,2023-11-15_22h41.01.532,experiment,2023.2.2,59.88411226594687,2023-11-15 22h41.30.001117 +0100,
3,0,3,0,10,0,10,0,154.73918060000005,,None,1,L,U,2,,,364109,pink,2023-11-15_22h41.01.532,experiment,2023.2.2,59.88411226594687,2023-11-15 22h41.30.001117 +0100,
3,0,3,0,11,0,11,0,156.8390015,,None,1,J,M,2,,,364109,pink,2023-11-15_22h41.01.532,experiment,2023.2.2,59.88411226594687,2023-11-15 22h41.30.001117 +0100,
3,0,3,0,,,,,,,,,,,,,,364109,pink,2023-11-15_22h41.01.532,experiment,2023.2.2,59.88411226594687,2023-11-15 22h41.30.001117 +0100,
4,0,4,0,0,0,0,0,159.9388448000002,,None,1,O,,2,,,364109,pink,2023-11-15_22h41.01.532,experiment,2023.2.2,59.88411226594687,2023-11-15 22h41.30.001117 +0100,
4,0,4,0,1,0,1,0,162.0391300000001,,None,1,V,,2,,,364109,pink,2023-11-15_22h41.01.532,experiment,2023.2.2,59.88411226594687,2023-11-15 22h41.30.001117 +0100,
4,0,4,0,2,0,2,0,164.1387576000002,,None,1,T,O,2,,,364109,pink,2023-11-15_22h41.01.532,experiment,2023.2.2,59.88411226594687,2023-11-15 22h41.30.001117 +0100,
4,0,4,0,3,0,3,0,166.2388337,,None,1,B,V,2,,,364109,pink,2023-11-15_22h41.01.532,experiment,2023.2.2,59.88411226594687,2023-11-15 22h41.30.001117 +0100,
4,0,4,0,4,0,4,0,168.33847760000003,,['space'],1,T,T,2,[0.5112261000001581],[None],364109,pink,2023-11-15_22h41.01.532,experiment,2023.2.2,59.88411226594687,2023-11-15 22h41.30.001117 +0100,
4,0,4,0,5,0,5,0,170.43850850000013,,['space'],1,B,B,2,[0.6400066000001061],[None],364109,pink,2023-11-15_22h41.01.532,experiment,2023.2.2,59.88411226594687,2023-11-15 22h41.30.001117 +0100,
4,0,4,0,6,0,6,0,172.53843330000018,,['space'],1,T,T,2,[0.44334060000005593],[None],364109,pink,2023-11-15_22h41.01.532,experiment,2023.2.2,59.88411226594687,2023-11-15 22h41.30.001117 +0100,
4,0,4,0,7,0,7,0,174.63834680000014,,None,1,K,B,2,,,364109,pink,2023-11-15_22h41.01.532,experiment,2023.2.2,59.88411226594687,2023-11-15 22h41.30.001117 +0100,
4,0,4,0,8,0,8,0,176.73825910000005,,None,1,D,T,2,,,364109,pink,2023-11-15_22h41.01.532,experiment,2023.2.2,59.88411226594687,2023-11-15 22h41.30.001117 +0100,
4,0,4,0,9,0,9,0,178.8382891000001,,None,1,X,K,2,,,364109,pink,2023-11-15_22h41.01.532,experiment,2023.2.2,59.88411226594687,2023-11-15 22h41.30.001117 +0100,
4,0,4,0,10,0,10,0,180.93813180000006,,['space'],1,D,D,2,[0.5818446999999196],[None],364109,pink,2023-11-15_22h41.01.532,experiment,2023.2.2,59.88411226594687,2023-11-15 22h41.30.001117 +0100,
4,0,4,0,11,0,11,0,183.03788630000008,,None,1,S,X,2,,,364109,pink,2023-11-15_22h41.01.532,experiment,2023.2.2,59.88411226594687,2023-11-15 22h41.30.001117 +0100,
4,0,4,0,,,,,,,,,,,,,,364109,pink,2023-11-15_22h41.01.532,experiment,2023.2.2,59.88411226594687,2023-11-15 22h41.30.001117 +0100,
5,0,5,0,0,0,0,0,187.62105080000015,,None,1,D,,1,,,364109,pink,2023-11-15_22h41.01.532,experiment,2023.2.2,59.88411226594687,2023-11-15 22h41.30.001117 +0100,
5,0,5,0,1,0,1,0,189.7209418,,None,1,S,D,1,,,364109,pink,2023-11-15_22h41.01.532,experiment,2023.2.2,59.88411226594687,2023-11-15 22h41.30.001117 +0100,
5,0,5,0,2,0,2,0,191.82078500000011,,['space'],1,S,S,1,[0.40565240000000813],[None],364109,pink,2023-11-15_22h41.01.532,experiment,2023.2.2,59.88411226594687,2023-11-15 22h41.30.001117 +0100,
5,0,5,0,3,0,3,0,193.92080780000015,,['space'],1,S,S,1,[0.4014682999998058],[None],364109,pink,2023-11-15_22h41.01.532,experiment,2023.2.2,59.88411226594687,2023-11-15 22h41.30.001117 +0100,
5,0,5,0,4,0,4,0,196.02071030000002,,['space'],1,S,S,1,[0.4225045000000591],[None],364109,pink,2023-11-15_22h41.01.532,experiment,2023.2.2,59.88411226594687,2023-11-15 22h41.30.001117 +0100,
5,0,5,0,5,0,5,0,198.12043510000012,,['space'],1,S,S,1,[0.39381279999997787],[None],364109,pink,2023-11-15_22h41.01.532,experiment,2023.2.2,59.88411226594687,2023-11-15 22h41.30.001117 +0100,
5,0,5,0,6,0,6,0,200.22007430000008,,['space'],0,A,S,1,[0.4340747999999621],[None],364109,pink,2023-11-15_22h41.01.532,experiment,2023.2.2,59.88411226594687,2023-11-15 22h41.30.001117 +0100,
5,0,5,0,7,0,7,0,202.3201292000001,,None,1,Y,A,1,,,364109,pink,2023-11-15_22h41.01.532,experiment,2023.2.2,59.88411226594687,2023-11-15 22h41.30.001117 +0100,
5,0,5,0,8,0,8,0,204.42038230000003,,['space'],1,Y,Y,1,[0.4338659000000007],[None],364109,pink,2023-11-15_22h41.01.532,experiment,2023.2.2,59.88411226594687,2023-11-15 22h41.30.001117 +0100,
5,0,5,0,9,0,9,0,206.5202803000002,,None,1,B,Y,1,,,364109,pink,2023-11-15_22h41.01.532,experiment,2023.2.2,59.88411226594687,2023-11-15 22h41.30.001117 +0100,
5,0,5,0,10,0,10,0,208.6199888000001,,None,1,M,B,1,,,364109,pink,2023-11-15_22h41.01.532,experiment,2023.2.2,59.88411226594687,2023-11-15 22h41.30.001117 +0100,
5,0,5,0,11,0,11,0,210.71990460000006,,None,1,T,M,1,,,364109,pink,2023-11-15_22h41.01.532,experiment,2023.2.2,59.88411226594687,2023-11-15 22h41.30.001117 +0100,
5,0,5,0,,,,,,,,,,,,,,364109,pink,2023-11-15_22h41.01.532,experiment,2023.2.2,59.88411226594687,2023-11-15 22h41.30.001117 +0100,
6,0,6,0,0,0,0,0,214.8365275000001,,None,1,T,,1,,,364109,pink,2023-11-15_22h41.01.532,experiment,2023.2.2,59.88411226594687,2023-11-15 22h41.30.001117 +0100,
6,0,6,0,1,0,1,0,216.93639240000016,,None,1,Q,T,1,,,364109,pink,2023-11-15_22h41.01.532,experiment,2023.2.2,59.88411226594687,2023-11-15 22h41.30.001117 +0100,
6,0,6,0,2,0,2,0,219.03635320000012,,['space'],1,Q,Q,1,[0.36925929999983964],[None],364109,pink,2023-11-15_22h41.01.532,experiment,2023.2.2,59.88411226594687,2023-11-15 22h41.30.001117 +0100,
6,0,6,0,3,0,3,0,221.13833750000003,,['space'],0,C,Q,1,[0.4253314000000046],[None],364109,pink,2023-11-15_22h41.01.532,experiment,2023.2.2,59.88411226594687,2023-11-15 22h41.30.001117 +0100,
6,0,6,0,4,0,4,0,223.23632140000018,,['space'],1,C,C,1,[0.4473798999999872],[None],364109,pink,2023-11-15_22h41.01.532,experiment,2023.2.2,59.88411226594687,2023-11-15 22h41.30.001117 +0100,
6,0,6,0,5,0,5,0,225.33612760000005,,['space'],1,C,C,1,[0.507805800000142],[None],364109,pink,2023-11-15_22h41.01.532,experiment,2023.2.2,59.88411226594687,2023-11-15 22h41.30.001117 +0100,
6,0,6,0,6,0,6,0,227.4361368000002,,None,1,L,C,1,,,364109,pink,2023-11-15_22h41.01.532,experiment,2023.2.2,59.88411226594687,2023-11-15 22h41.30.001117 +0100,
6,0,6,0,7,0,7,0,229.53596490000018,,None,1,T,L,1,,,364109,pink,2023-11-15_22h41.01.532,experiment,2023.2.2,59.88411226594687,2023-11-15 22h41.30.001117 +0100,
6,0,6,0,8,0,8,0,231.63599040000008,,None,1,S,T,1,,,364109,pink,2023-11-15_22h41.01.532,experiment,2023.2.2,59.88411226594687,2023-11-15 22h41.30.001117 +0100,
6,0,6,0,9,0,9,0,233.73590250000007,,['space'],1,S,S,1,[0.4181592999998429],[None],364109,pink,2023-11-15_22h41.01.532,experiment,2023.2.2,59.88411226594687,2023-11-15 22h41.30.001117 +0100,
6,0,6,0,10,0,10,0,235.83562630000006,,['space'],1,S,S,1,[0.5194280999999137],[None],364109,pink,2023-11-15_22h41.01.532,experiment,2023.2.2,59.88411226594687,2023-11-15 22h41.30.001117 +0100,
6,0,6,0,11,0,11,0,237.93553770000017,,None,1,C,S,1,,,364109,pink,2023-11-15_22h41.01.532,experiment,2023.2.2,59.88411226594687,2023-11-15 22h41.30.001117 +0100,
6,0,6,0,,,,,,,,,,,,,,364109,pink,2023-11-15_22h41.01.532,experiment,2023.2.2,59.88411226594687,2023-11-15 22h41.30.001117 +0100,
7,0,7,0,0,0,0,0,240.8867905000002,,None,1,Z,,1,,,364109,pink,2023-11-15_22h41.01.532,experiment,2023.2.2,59.88411226594687,2023-11-15 22h41.30.001117 +0100,
7,0,7,0,1,0,1,0,242.98537150000016,,None,1,D,Z,1,,,364109,pink,2023-11-15_22h41.01.532,experiment,2023.2.2,59.88411226594687,2023-11-15 22h41.30.001117 +0100,
7,0,7,0,2,0,2,0,245.08512840000003,,['space'],1,D,D,1,[0.4139703000000736],[None],364109,pink,2023-11-15_22h41.01.532,experiment,2023.2.2,59.88411226594687,2023-11-15 22h41.30.001117 +0100,
7,0,7,0,3,0,3,0,247.18520590000003,,['space'],1,D,D,1,[0.5202456000001803],[None],364109,pink,2023-11-15_22h41.01.532,experiment,2023.2.2,59.88411226594687,2023-11-15 22h41.30.001117 +0100,
7,0,7,0,4,0,4,0,249.28541170000017,,['space'],1,D,D,1,[0.4345683999999892],[None],364109,pink,2023-11-15_22h41.01.532,experiment,2023.2.2,59.88411226594687,2023-11-15 22h41.30.001117 +0100,
7,0,7,0,5,0,5,0,251.3847578,,None,1,P,D,1,,,364109,pink,2023-11-15_22h41.01.532,experiment,2023.2.2,59.88411226594687,2023-11-15 22h41.30.001117 +0100,
7,0,7,0,6,0,6,0,253.48484510000003,,None,1,G,P,1,,,364109,pink,2023-11-15_22h41.01.532,experiment,2023.2.2,59.88411226594687,2023-11-15 22h41.30.001117 +0100,
7,0,7,0,7,0,7,0,255.58492920000003,,['space'],1,G,G,1,[0.49322430000006534],[None],364109,pink,2023-11-15_22h41.01.532,experiment,2023.2.2,59.88411226594687,2023-11-15 22h41.30.001117 +0100,
7,0,7,0,8,0,8,0,257.68470120000006,,None,1,O,G,1,,,364109,pink,2023-11-15_22h41.01.532,experiment,2023.2.2,59.88411226594687,2023-11-15 22h41.30.001117 +0100,
7,0,7,0,9,0,9,0,259.78488160000006,,['space'],1,O,O,1,[0.3961779999999635],[None],364109,pink,2023-11-15_22h41.01.532,experiment,2023.2.2,59.88411226594687,2023-11-15 22h41.30.001117 +0100,
7,0,7,0,10,0,10,0,261.88463520000005,,['space'],1,O,O,1,[0.5638962000000447],[None],364109,pink,2023-11-15_22h41.01.532,experiment,2023.2.2,59.88411226594687,2023-11-15 22h41.30.001117 +0100,
7,0,7,0,11,0,11,0,263.9845513,,None,1,Y,O,1,,,364109,pink,2023-11-15_22h41.01.532,experiment,2023.2.2,59.88411226594687,2023-11-15 22h41.30.001117 +0100,
7,0,7,0,,,,,,,,,,,,,,364109,pink,2023-11-15_22h41.01.532,experiment,2023.2.2,59.88411226594687,2023-11-15 22h41.30.001117 +0100,
