trials_3.thisRepN,trials_3.thisTrialN,trials_3.thisN,trials_3.thisIndex,trials.thisRepN,trials.thisTrialN,trials.thisN,trials.thisIndex,thisRow.t,notes,key_resp_2.keys,key_resp_2.corr,letter.routineEndVal,nback.routineEndVal,type.routineEndVal,key_resp_2.rt,key_resp_2.duration,participant,session,date,expName,psychopyVersion,frameRate,expStart,
0,0,0,0,0,0,0,0,8.572543799993582,,None,1,G,,2,,,13,brown,2023-11-08_10h57.59.136,experiment,2023.2.2,59.892612540300846,2023-11-08 10h58.18.428815 +0100,
0,0,0,0,1,0,1,0,10.650469699990936,,None,1,J,,2,,,13,brown,2023-11-08_10h57.59.136,experiment,2023.2.2,59.892612540300846,2023-11-08 10h58.18.428815 +0100,
0,0,0,0,2,0,2,0,12.748773799976334,,None,1,M,G,2,,,13,brown,2023-11-08_10h57.59.136,experiment,2023.2.2,59.892612540300846,2023-11-08 10h58.18.428815 +0100,
0,0,0,0,3,0,3,0,14.846670499973698,,['space'],1,J,J,2,[1.0644890000112355],[None],13,brown,2023-11-08_10h57.59.136,experiment,2023.2.2,59.892612540300846,2023-11-08 10h58.18.428815 +0100,
0,0,0,0,4,0,4,0,16.954912699991837,,None,1,B,M,2,,,13,brown,2023-11-08_10h57.59.136,experiment,2023.2.2,59.892612540300846,2023-11-08 10h58.18.428815 +0100,
0,0,0,0,5,0,5,0,19.0431288999971,,None,1,E,J,2,,,13,brown,2023-11-08_10h57.59.136,experiment,2023.2.2,59.892612540300846,2023-11-08 10h58.18.428815 +0100,
0,0,0,0,6,0,6,0,21.143777299992507,,None,1,Z,B,2,,,13,brown,2023-11-08_10h57.59.136,experiment,2023.2.2,59.892612540300846,2023-11-08 10h58.18.428815 +0100,
0,0,0,0,7,0,7,0,23.246779999986757,,None,1,U,E,2,,,13,brown,2023-11-08_10h57.59.136,experiment,2023.2.2,59.892612540300846,2023-11-08 10h58.18.428815 +0100,
0,0,0,0,8,0,8,0,25.337696199974744,,None,1,N,Z,2,,,13,brown,2023-11-08_10h57.59.136,experiment,2023.2.2,59.892612540300846,2023-11-08 10h58.18.428815 +0100,
0,0,0,0,9,0,9,0,27.436491699976614,,None,1,G,U,2,,,13,brown,2023-11-08_10h57.59.136,experiment,2023.2.2,59.892612540300846,2023-11-08 10h58.18.428815 +0100,
0,0,0,0,10,0,10,0,29.534856499987654,,['space'],1,N,N,2,[0.7625815999926999],[None],13,brown,2023-11-08_10h57.59.136,experiment,2023.2.2,59.892612540300846,2023-11-08 10h58.18.428815 +0100,
0,0,0,0,11,0,11,0,31.64327809997485,,None,1,L,G,2,,,13,brown,2023-11-08_10h57.59.136,experiment,2023.2.2,59.892612540300846,2023-11-08 10h58.18.428815 +0100,
0,0,0,0,,,,,,,,,,,,,,13,brown,2023-11-08_10h57.59.136,experiment,2023.2.2,59.892612540300846,2023-11-08 10h58.18.428815 +0100,
1,0,1,0,0,0,0,0,34.93580419998034,,None,1,O,,1,,,13,brown,2023-11-08_10h57.59.136,experiment,2023.2.2,59.892612540300846,2023-11-08 10h58.18.428815 +0100,
1,0,1,0,1,0,1,0,37.03822539999965,,None,1,F,O,1,,,13,brown,2023-11-08_10h57.59.136,experiment,2023.2.2,59.892612540300846,2023-11-08 10h58.18.428815 +0100,
1,0,1,0,2,0,2,0,39.12669249999453,,None,1,L,F,1,,,13,brown,2023-11-08_10h57.59.136,experiment,2023.2.2,59.892612540300846,2023-11-08 10h58.18.428815 +0100,
1,0,1,0,3,0,3,0,41.231526299990946,,None,1,H,L,1,,,13,brown,2023-11-08_10h57.59.136,experiment,2023.2.2,59.892612540300846,2023-11-08 10h58.18.428815 +0100,
1,0,1,0,4,0,4,0,43.33100169998943,,None,1,Y,H,1,,,13,brown,2023-11-08_10h57.59.136,experiment,2023.2.2,59.892612540300846,2023-11-08 10h58.18.428815 +0100,
1,0,1,0,5,0,5,0,45.42156679998152,,None,1,J,Y,1,,,13,brown,2023-11-08_10h57.59.136,experiment,2023.2.2,59.892612540300846,2023-11-08 10h58.18.428815 +0100,
1,0,1,0,6,0,6,0,47.52674639999168,,None,1,I,J,1,,,13,brown,2023-11-08_10h57.59.136,experiment,2023.2.2,59.892612540300846,2023-11-08 10h58.18.428815 +0100,
1,0,1,0,7,0,7,0,49.61804289999418,,None,1,E,I,1,,,13,brown,2023-11-08_10h57.59.136,experiment,2023.2.2,59.892612540300846,2023-11-08 10h58.18.428815 +0100,
1,0,1,0,8,0,8,0,51.71637959999498,,None,1,Z,E,1,,,13,brown,2023-11-08_10h57.59.136,experiment,2023.2.2,59.892612540300846,2023-11-08 10h58.18.428815 +0100,
1,0,1,0,9,0,9,0,53.81457709998358,,None,1,U,Z,1,,,13,brown,2023-11-08_10h57.59.136,experiment,2023.2.2,59.892612540300846,2023-11-08 10h58.18.428815 +0100,
1,0,1,0,10,0,10,0,55.93261889999849,,None,1,V,U,1,,,13,brown,2023-11-08_10h57.59.136,experiment,2023.2.2,59.892612540300846,2023-11-08 10h58.18.428815 +0100,
1,0,1,0,11,0,11,0,58.02073109999765,,None,1,X,V,1,,,13,brown,2023-11-08_10h57.59.136,experiment,2023.2.2,59.892612540300846,2023-11-08 10h58.18.428815 +0100,
1,0,1,0,,,,,,,,,,,,,,13,brown,2023-11-08_10h57.59.136,experiment,2023.2.2,59.892612540300846,2023-11-08 10h58.18.428815 +0100,
2,0,2,0,0,0,0,0,62.224807699996745,,None,1,E,,2,,,13,brown,2023-11-08_10h57.59.136,experiment,2023.2.2,59.892612540300846,2023-11-08 10h58.18.428815 +0100,
2,0,2,0,1,0,1,0,64.3380857000011,,None,1,S,,2,,,13,brown,2023-11-08_10h57.59.136,experiment,2023.2.2,59.892612540300846,2023-11-08 10h58.18.428815 +0100,
2,0,2,0,2,0,2,0,66.42105229999288,,None,1,I,E,2,,,13,brown,2023-11-08_10h57.59.136,experiment,2023.2.2,59.892612540300846,2023-11-08 10h58.18.428815 +0100,
2,0,2,0,3,0,3,0,68.52867839997634,,None,1,C,S,2,,,13,brown,2023-11-08_10h57.59.136,experiment,2023.2.2,59.892612540300846,2023-11-08 10h58.18.428815 +0100,
2,0,2,0,4,0,4,0,70.62562759997672,,None,1,W,I,2,,,13,brown,2023-11-08_10h57.59.136,experiment,2023.2.2,59.892612540300846,2023-11-08 10h58.18.428815 +0100,
2,0,2,0,5,0,5,0,72.7262879999762,,None,1,D,C,2,,,13,brown,2023-11-08_10h57.59.136,experiment,2023.2.2,59.892612540300846,2023-11-08 10h58.18.428815 +0100,
2,0,2,0,6,0,6,0,74.8138582999818,,None,1,P,W,2,,,13,brown,2023-11-08_10h57.59.136,experiment,2023.2.2,59.892612540300846,2023-11-08 10h58.18.428815 +0100,
2,0,2,0,7,0,7,0,76.91230629998608,,None,1,W,D,2,,,13,brown,2023-11-08_10h57.59.136,experiment,2023.2.2,59.892612540300846,2023-11-08 10h58.18.428815 +0100,
2,0,2,0,8,0,8,0,79.01077159997658,,None,1,O,P,2,,,13,brown,2023-11-08_10h57.59.136,experiment,2023.2.2,59.892612540300846,2023-11-08 10h58.18.428815 +0100,
2,0,2,0,9,0,9,0,81.10866679999162,,['space'],1,W,W,2,[0.8409474000218324],[None],13,brown,2023-11-08_10h57.59.136,experiment,2023.2.2,59.892612540300846,2023-11-08 10h58.18.428815 +0100,
2,0,2,0,10,0,10,0,83.20731709999382,,None,1,I,O,2,,,13,brown,2023-11-08_10h57.59.136,experiment,2023.2.2,59.892612540300846,2023-11-08 10h58.18.428815 +0100,
2,0,2,0,11,0,11,0,85.30521849999786,,['space'],0,P,W,2,[1.558218999998644],[None],13,brown,2023-11-08_10h57.59.136,experiment,2023.2.2,59.892612540300846,2023-11-08 10h58.18.428815 +0100,
2,0,2,0,,,,,,,,,,,,,,13,brown,2023-11-08_10h57.59.136,experiment,2023.2.2,59.892612540300846,2023-11-08 10h58.18.428815 +0100,
3,0,3,0,0,0,0,0,88.91967639999348,,None,1,I,,2,,,13,brown,2023-11-08_10h57.59.136,experiment,2023.2.2,59.892612540300846,2023-11-08 10h58.18.428815 +0100,
3,0,3,0,1,0,1,0,91.0172114999732,,None,1,B,,2,,,13,brown,2023-11-08_10h57.59.136,experiment,2023.2.2,59.892612540300846,2023-11-08 10h58.18.428815 +0100,
3,0,3,0,2,0,2,0,93.11570029999712,,None,1,U,I,2,,,13,brown,2023-11-08_10h57.59.136,experiment,2023.2.2,59.892612540300846,2023-11-08 10h58.18.428815 +0100,
3,0,3,0,3,0,3,0,95.21938759999466,,None,1,A,B,2,,,13,brown,2023-11-08_10h57.59.136,experiment,2023.2.2,59.892612540300846,2023-11-08 10h58.18.428815 +0100,
3,0,3,0,4,0,4,0,97.31204689998413,,None,1,N,U,2,,,13,brown,2023-11-08_10h57.59.136,experiment,2023.2.2,59.892612540300846,2023-11-08 10h58.18.428815 +0100,
3,0,3,0,5,0,5,0,99.41052059998037,,None,1,B,A,2,,,13,brown,2023-11-08_10h57.59.136,experiment,2023.2.2,59.892612540300846,2023-11-08 10h58.18.428815 +0100,
3,0,3,0,6,0,6,0,101.50906399998348,,None,1,I,N,2,,,13,brown,2023-11-08_10h57.59.136,experiment,2023.2.2,59.892612540300846,2023-11-08 10h58.18.428815 +0100,
3,0,3,0,7,0,7,0,103.60691059997771,,None,1,Y,B,2,,,13,brown,2023-11-08_10h57.59.136,experiment,2023.2.2,59.892612540300846,2023-11-08 10h58.18.428815 +0100,
3,0,3,0,8,0,8,0,105.70939869998256,,None,1,W,I,2,,,13,brown,2023-11-08_10h57.59.136,experiment,2023.2.2,59.892612540300846,2023-11-08 10h58.18.428815 +0100,
3,0,3,0,9,0,9,0,107.80344769998919,,['space'],1,Y,Y,2,[0.767675999988569],[None],13,brown,2023-11-08_10h57.59.136,experiment,2023.2.2,59.892612540300846,2023-11-08 10h58.18.428815 +0100,
3,0,3,0,10,0,10,0,109.90324189999956,,None,1,A,W,2,,,13,brown,2023-11-08_10h57.59.136,experiment,2023.2.2,59.892612540300846,2023-11-08 10h58.18.428815 +0100,
3,0,3,0,11,0,11,0,112.00004929999704,,['space'],1,Y,Y,2,[0.6544842000002973],[None],13,brown,2023-11-08_10h57.59.136,experiment,2023.2.2,59.892612540300846,2023-11-08 10h58.18.428815 +0100,
3,0,3,0,,,,,,,,,,,,,,13,brown,2023-11-08_10h57.59.136,experiment,2023.2.2,59.892612540300846,2023-11-08 10h58.18.428815 +0100,
4,0,4,0,0,0,0,0,115.08409099999699,,None,1,K,,1,,,13,brown,2023-11-08_10h57.59.136,experiment,2023.2.2,59.892612540300846,2023-11-08 10h58.18.428815 +0100,
4,0,4,0,1,0,1,0,117.1796460999758,,None,1,S,K,1,,,13,brown,2023-11-08_10h57.59.136,experiment,2023.2.2,59.892612540300846,2023-11-08 10h58.18.428815 +0100,
4,0,4,0,2,0,2,0,119.27726659999462,,None,1,N,S,1,,,13,brown,2023-11-08_10h57.59.136,experiment,2023.2.2,59.892612540300846,2023-11-08 10h58.18.428815 +0100,
4,0,4,0,3,0,3,0,121.37578829997801,,['space'],0,K,N,1,[0.9788066000037361],[None],13,brown,2023-11-08_10h57.59.136,experiment,2023.2.2,59.892612540300846,2023-11-08 10h58.18.428815 +0100,
4,0,4,0,4,0,4,0,123.4739063999732,,None,1,Y,K,1,,,13,brown,2023-11-08_10h57.59.136,experiment,2023.2.2,59.892612540300846,2023-11-08 10h58.18.428815 +0100,
4,0,4,0,5,0,5,0,125.57208489999175,,None,1,D,Y,1,,,13,brown,2023-11-08_10h57.59.136,experiment,2023.2.2,59.892612540300846,2023-11-08 10h58.18.428815 +0100,
4,0,4,0,6,0,6,0,127.67167270000209,,None,1,A,D,1,,,13,brown,2023-11-08_10h57.59.136,experiment,2023.2.2,59.892612540300846,2023-11-08 10h58.18.428815 +0100,
4,0,4,0,7,0,7,0,129.7687811999931,,None,1,F,A,1,,,13,brown,2023-11-08_10h57.59.136,experiment,2023.2.2,59.892612540300846,2023-11-08 10h58.18.428815 +0100,
4,0,4,0,8,0,8,0,131.86697499998263,,None,1,G,F,1,,,13,brown,2023-11-08_10h57.59.136,experiment,2023.2.2,59.892612540300846,2023-11-08 10h58.18.428815 +0100,
4,0,4,0,9,0,9,0,133.9651880999736,,None,1,A,G,1,,,13,brown,2023-11-08_10h57.59.136,experiment,2023.2.2,59.892612540300846,2023-11-08 10h58.18.428815 +0100,
4,0,4,0,10,0,10,0,136.06457659997977,,None,1,M,A,1,,,13,brown,2023-11-08_10h57.59.136,experiment,2023.2.2,59.892612540300846,2023-11-08 10h58.18.428815 +0100,
4,0,4,0,11,0,11,0,138.16177969999262,,None,1,F,M,1,,,13,brown,2023-11-08_10h57.59.136,experiment,2023.2.2,59.892612540300846,2023-11-08 10h58.18.428815 +0100,
4,0,4,0,,,,,,,,,,,,,,13,brown,2023-11-08_10h57.59.136,experiment,2023.2.2,59.892612540300846,2023-11-08 10h58.18.428815 +0100,
5,0,5,0,0,0,0,0,141.45907939999597,,None,1,U,,1,,,13,brown,2023-11-08_10h57.59.136,experiment,2023.2.2,59.892612540300846,2023-11-08 10h58.18.428815 +0100,
5,0,5,0,1,0,1,0,143.55735889999778,,None,1,J,U,1,,,13,brown,2023-11-08_10h57.59.136,experiment,2023.2.2,59.892612540300846,2023-11-08 10h58.18.428815 +0100,
5,0,5,0,2,0,2,0,145.65572129999055,,None,1,P,J,1,,,13,brown,2023-11-08_10h57.59.136,experiment,2023.2.2,59.892612540300846,2023-11-08 10h58.18.428815 +0100,
5,0,5,0,3,0,3,0,147.75406499998644,,None,1,X,P,1,,,13,brown,2023-11-08_10h57.59.136,experiment,2023.2.2,59.892612540300846,2023-11-08 10h58.18.428815 +0100,
5,0,5,0,4,0,4,0,149.85229229999823,,None,1,C,X,1,,,13,brown,2023-11-08_10h57.59.136,experiment,2023.2.2,59.892612540300846,2023-11-08 10h58.18.428815 +0100,
5,0,5,0,5,0,5,0,151.9504381000006,,None,1,U,C,1,,,13,brown,2023-11-08_10h57.59.136,experiment,2023.2.2,59.892612540300846,2023-11-08 10h58.18.428815 +0100,
5,0,5,0,6,0,6,0,154.0495628999779,,None,1,J,U,1,,,13,brown,2023-11-08_10h57.59.136,experiment,2023.2.2,59.892612540300846,2023-11-08 10h58.18.428815 +0100,
5,0,5,0,7,0,7,0,156.14670729998033,,None,1,X,J,1,,,13,brown,2023-11-08_10h57.59.136,experiment,2023.2.2,59.892612540300846,2023-11-08 10h58.18.428815 +0100,
5,0,5,0,8,0,8,0,158.24654939997708,,None,1,E,X,1,,,13,brown,2023-11-08_10h57.59.136,experiment,2023.2.2,59.892612540300846,2023-11-08 10h58.18.428815 +0100,
5,0,5,0,9,0,9,0,160.34344869997585,,None,1,N,E,1,,,13,brown,2023-11-08_10h57.59.136,experiment,2023.2.2,59.892612540300846,2023-11-08 10h58.18.428815 +0100,
5,0,5,0,10,0,10,0,162.44198589998996,,None,1,S,N,1,,,13,brown,2023-11-08_10h57.59.136,experiment,2023.2.2,59.892612540300846,2023-11-08 10h58.18.428815 +0100,
5,0,5,0,11,0,11,0,164.5457996999903,,None,1,Q,S,1,,,13,brown,2023-11-08_10h57.59.136,experiment,2023.2.2,59.892612540300846,2023-11-08 10h58.18.428815 +0100,
5,0,5,0,,,,,,,,,,,,,,13,brown,2023-11-08_10h57.59.136,experiment,2023.2.2,59.892612540300846,2023-11-08 10h58.18.428815 +0100,
6,0,6,0,0,0,0,0,167.45364249998238,,None,1,Z,,1,,,13,brown,2023-11-08_10h57.59.136,experiment,2023.2.2,59.892612540300846,2023-11-08 10h58.18.428815 +0100,
6,0,6,0,1,0,1,0,169.552655699983,,None,1,E,Z,1,,,13,brown,2023-11-08_10h57.59.136,experiment,2023.2.2,59.892612540300846,2023-11-08 10h58.18.428815 +0100,
6,0,6,0,2,0,2,0,171.650871299993,,None,1,C,E,1,,,13,brown,2023-11-08_10h57.59.136,experiment,2023.2.2,59.892612540300846,2023-11-08 10h58.18.428815 +0100,
6,0,6,0,3,0,3,0,173.74939129999257,,None,1,K,C,1,,,13,brown,2023-11-08_10h57.59.136,experiment,2023.2.2,59.892612540300846,2023-11-08 10h58.18.428815 +0100,
6,0,6,0,4,0,4,0,175.86091839999426,,None,1,R,K,1,,,13,brown,2023-11-08_10h57.59.136,experiment,2023.2.2,59.892612540300846,2023-11-08 10h58.18.428815 +0100,
6,0,6,0,5,0,5,0,177.94559569997364,,None,1,J,R,1,,,13,brown,2023-11-08_10h57.59.136,experiment,2023.2.2,59.892612540300846,2023-11-08 10h58.18.428815 +0100,
6,0,6,0,6,0,6,0,180.04387549997773,,None,1,H,J,1,,,13,brown,2023-11-08_10h57.59.136,experiment,2023.2.2,59.892612540300846,2023-11-08 10h58.18.428815 +0100,
6,0,6,0,7,0,7,0,182.14211200000136,,None,1,D,H,1,,,13,brown,2023-11-08_10h57.59.136,experiment,2023.2.2,59.892612540300846,2023-11-08 10h58.18.428815 +0100,
6,0,6,0,8,0,8,0,184.24143909997656,,None,1,R,D,1,,,13,brown,2023-11-08_10h57.59.136,experiment,2023.2.2,59.892612540300846,2023-11-08 10h58.18.428815 +0100,
6,0,6,0,9,0,9,0,186.33865499999956,,None,1,P,R,1,,,13,brown,2023-11-08_10h57.59.136,experiment,2023.2.2,59.892612540300846,2023-11-08 10h58.18.428815 +0100,
6,0,6,0,10,0,10,0,188.4370202999853,,None,1,I,P,1,,,13,brown,2023-11-08_10h57.59.136,experiment,2023.2.2,59.892612540300846,2023-11-08 10h58.18.428815 +0100,
6,0,6,0,11,0,11,0,190.53533899999456,,None,1,Q,I,1,,,13,brown,2023-11-08_10h57.59.136,experiment,2023.2.2,59.892612540300846,2023-11-08 10h58.18.428815 +0100,
6,0,6,0,,,,,,,,,,,,,,13,brown,2023-11-08_10h57.59.136,experiment,2023.2.2,59.892612540300846,2023-11-08 10h58.18.428815 +0100,
7,0,7,0,0,0,0,0,195.20093819999602,,None,1,D,,2,,,13,brown,2023-11-08_10h57.59.136,experiment,2023.2.2,59.892612540300846,2023-11-08 10h58.18.428815 +0100,
7,0,7,0,1,0,1,0,197.29801410000073,,None,1,B,,2,,,13,brown,2023-11-08_10h57.59.136,experiment,2023.2.2,59.892612540300846,2023-11-08 10h58.18.428815 +0100,
7,0,7,0,2,0,2,0,199.39494629998808,,None,1,I,D,2,,,13,brown,2023-11-08_10h57.59.136,experiment,2023.2.2,59.892612540300846,2023-11-08 10h58.18.428815 +0100,
7,0,7,0,3,0,3,0,201.49299519998021,,None,1,L,B,2,,,13,brown,2023-11-08_10h57.59.136,experiment,2023.2.2,59.892612540300846,2023-11-08 10h58.18.428815 +0100,
7,0,7,0,4,0,4,0,203.5912242999766,,None,1,Z,I,2,,,13,brown,2023-11-08_10h57.59.136,experiment,2023.2.2,59.892612540300846,2023-11-08 10h58.18.428815 +0100,
7,0,7,0,5,0,5,0,205.68938579998212,,None,1,D,L,2,,,13,brown,2023-11-08_10h57.59.136,experiment,2023.2.2,59.892612540300846,2023-11-08 10h58.18.428815 +0100,
7,0,7,0,6,0,6,0,207.78751769999508,,None,1,K,Z,2,,,13,brown,2023-11-08_10h57.59.136,experiment,2023.2.2,59.892612540300846,2023-11-08 10h58.18.428815 +0100,
7,0,7,0,7,0,7,0,209.88555839998298,,None,1,S,D,2,,,13,brown,2023-11-08_10h57.59.136,experiment,2023.2.2,59.892612540300846,2023-11-08 10h58.18.428815 +0100,
7,0,7,0,8,0,8,0,211.98402799997712,,None,1,I,K,2,,,13,brown,2023-11-08_10h57.59.136,experiment,2023.2.2,59.892612540300846,2023-11-08 10h58.18.428815 +0100,
7,0,7,0,9,0,9,0,214.08249959998648,,None,1,V,S,2,,,13,brown,2023-11-08_10h57.59.136,experiment,2023.2.2,59.892612540300846,2023-11-08 10h58.18.428815 +0100,
7,0,7,0,10,0,10,0,216.190137699974,,None,1,T,I,2,,,13,brown,2023-11-08_10h57.59.136,experiment,2023.2.2,59.892612540300846,2023-11-08 10h58.18.428815 +0100,
7,0,7,0,11,0,11,0,218.27875979998498,,None,1,M,V,2,,,13,brown,2023-11-08_10h57.59.136,experiment,2023.2.2,59.892612540300846,2023-11-08 10h58.18.428815 +0100,
7,0,7,0,,,,,,,,,,,,,,13,brown,2023-11-08_10h57.59.136,experiment,2023.2.2,59.892612540300846,2023-11-08 10h58.18.428815 +0100,
