trials_3.thisRepN,trials_3.thisTrialN,trials_3.thisN,trials_3.thisIndex,trials.thisRepN,trials.thisTrialN,trials.thisN,trials.thisIndex,thisRow.t,notes,key_resp_2.keys,key_resp_2.corr,letter.routineEndVal,nback.routineEndVal,type.routineEndVal,key_resp_2.rt,key_resp_2.duration,participant,session,date,expName,psychopyVersion,frameRate,expStart,
0,0,0,0,0,0,0,0,4.035166100016795,,None,1,E,,1,,,13,none,2023-11-08_11h06.53.802,experiment,2023.2.2,59.96688628107922,2023-11-08 11h07.06.870636 +0100,
0,0,0,0,1,0,1,0,6.123061799997231,,['space'],1,E,E,1,[0.7436868000077084],[None],13,none,2023-11-08_11h06.53.802,experiment,2023.2.2,59.96688628107922,2023-11-08 11h07.06.870636 +0100,
0,0,0,0,2,0,2,0,8.224177600000985,,None,1,Y,E,1,,,13,none,2023-11-08_11h06.53.802,experiment,2023.2.2,59.96688628107922,2023-11-08 11h07.06.870636 +0100,
0,0,0,0,3,0,3,0,10.320264600013616,,None,1,R,Y,1,,,13,none,2023-11-08_11h06.53.802,experiment,2023.2.2,59.96688628107922,2023-11-08 11h07.06.870636 +0100,
0,0,0,0,4,0,4,0,12.417922499997076,,['space'],1,R,R,1,[0.6325497000070754],[None],13,none,2023-11-08_11h06.53.802,experiment,2023.2.2,59.96688628107922,2023-11-08 11h07.06.870636 +0100,
0,0,0,0,5,0,5,0,14.516061300004367,,['space'],1,R,R,1,[0.808048000006238],[None],13,none,2023-11-08_11h06.53.802,experiment,2023.2.2,59.96688628107922,2023-11-08 11h07.06.870636 +0100,
0,0,0,0,6,0,6,0,16.620225399994524,,None,1,D,R,1,,,13,none,2023-11-08_11h06.53.802,experiment,2023.2.2,59.96688628107922,2023-11-08 11h07.06.870636 +0100,
0,0,0,0,7,0,7,0,18.72380740000517,,None,1,V,D,1,,,13,none,2023-11-08_11h06.53.802,experiment,2023.2.2,59.96688628107922,2023-11-08 11h07.06.870636 +0100,
0,0,0,0,8,0,8,0,20.819470399990678,,None,1,Z,V,1,,,13,none,2023-11-08_11h06.53.802,experiment,2023.2.2,59.96688628107922,2023-11-08 11h07.06.870636 +0100,
0,0,0,0,9,0,9,0,22.922549600014463,,None,1,N,Z,1,,,13,none,2023-11-08_11h06.53.802,experiment,2023.2.2,59.96688628107922,2023-11-08 11h07.06.870636 +0100,
0,0,0,0,10,0,10,0,25.022124400013126,,None,1,M,N,1,,,13,none,2023-11-08_11h06.53.802,experiment,2023.2.2,59.96688628107922,2023-11-08 11h07.06.870636 +0100,
0,0,0,0,11,0,11,0,27.11990479999804,,None,1,G,M,1,,,13,none,2023-11-08_11h06.53.802,experiment,2023.2.2,59.96688628107922,2023-11-08 11h07.06.870636 +0100,
0,0,0,0,,,,,,,,,,,,,,13,none,2023-11-08_11h06.53.802,experiment,2023.2.2,59.96688628107922,2023-11-08 11h07.06.870636 +0100,
1,0,1,0,0,0,0,0,30.119951300002867,,None,1,G,,2,,,13,none,2023-11-08_11h06.53.802,experiment,2023.2.2,59.96688628107922,2023-11-08 11h07.06.870636 +0100,
1,0,1,0,1,0,1,0,32.228962199995294,,None,1,W,,2,,,13,none,2023-11-08_11h06.53.802,experiment,2023.2.2,59.96688628107922,2023-11-08 11h07.06.870636 +0100,
1,0,1,0,2,0,2,0,34.32716129999608,,None,1,X,G,2,,,13,none,2023-11-08_11h06.53.802,experiment,2023.2.2,59.96688628107922,2023-11-08 11h07.06.870636 +0100,
1,0,1,0,3,0,3,0,36.41497069998877,,['space'],1,W,W,2,[0.7248020999832079],[None],13,none,2023-11-08_11h06.53.802,experiment,2023.2.2,59.96688628107922,2023-11-08 11h07.06.870636 +0100,
1,0,1,0,4,0,4,0,38.51346129999729,,None,1,F,X,2,,,13,none,2023-11-08_11h06.53.802,experiment,2023.2.2,59.96688628107922,2023-11-08 11h07.06.870636 +0100,
1,0,1,0,5,0,5,0,40.619349200016586,,None,1,I,W,2,,,13,none,2023-11-08_11h06.53.802,experiment,2023.2.2,59.96688628107922,2023-11-08 11h07.06.870636 +0100,
1,0,1,0,6,0,6,0,42.71826749999309,,None,1,K,F,2,,,13,none,2023-11-08_11h06.53.802,experiment,2023.2.2,59.96688628107922,2023-11-08 11h07.06.870636 +0100,
1,0,1,0,7,0,7,0,44.810619800002314,,None,1,J,I,2,,,13,none,2023-11-08_11h06.53.802,experiment,2023.2.2,59.96688628107922,2023-11-08 11h07.06.870636 +0100,
1,0,1,0,8,0,8,0,46.90609820000827,,None,1,V,K,2,,,13,none,2023-11-08_11h06.53.802,experiment,2023.2.2,59.96688628107922,2023-11-08 11h07.06.870636 +0100,
1,0,1,0,9,0,9,0,49.00435689999722,,None,1,Y,J,2,,,13,none,2023-11-08_11h06.53.802,experiment,2023.2.2,59.96688628107922,2023-11-08 11h07.06.870636 +0100,
1,0,1,0,10,0,10,0,51.106610599992564,,None,1,L,V,2,,,13,none,2023-11-08_11h06.53.802,experiment,2023.2.2,59.96688628107922,2023-11-08 11h07.06.870636 +0100,
1,0,1,0,11,0,11,0,53.200720799999544,,['space'],1,Y,Y,2,[0.4926604999927804],[None],13,none,2023-11-08_11h06.53.802,experiment,2023.2.2,59.96688628107922,2023-11-08 11h07.06.870636 +0100,
1,0,1,0,,,,,,,,,,,,,,13,none,2023-11-08_11h06.53.802,experiment,2023.2.2,59.96688628107922,2023-11-08 11h07.06.870636 +0100,
2,0,2,0,0,0,0,0,56.131878000014694,,None,1,R,,1,,,13,none,2023-11-08_11h06.53.802,experiment,2023.2.2,59.96688628107922,2023-11-08 11h07.06.870636 +0100,
2,0,2,0,1,0,1,0,58.23066570001538,,None,1,F,R,1,,,13,none,2023-11-08_11h06.53.802,experiment,2023.2.2,59.96688628107922,2023-11-08 11h07.06.870636 +0100,
2,0,2,0,2,0,2,0,60.3420260999992,,None,1,U,F,1,,,13,none,2023-11-08_11h06.53.802,experiment,2023.2.2,59.96688628107922,2023-11-08 11h07.06.870636 +0100,
2,0,2,0,3,0,3,0,62.42648520000512,,None,1,E,U,1,,,13,none,2023-11-08_11h06.53.802,experiment,2023.2.2,59.96688628107922,2023-11-08 11h07.06.870636 +0100,
2,0,2,0,4,0,4,0,64.53587170000537,,None,1,B,E,1,,,13,none,2023-11-08_11h06.53.802,experiment,2023.2.2,59.96688628107922,2023-11-08 11h07.06.870636 +0100,
2,0,2,0,5,0,5,0,66.6317943999893,,None,1,A,B,1,,,13,none,2023-11-08_11h06.53.802,experiment,2023.2.2,59.96688628107922,2023-11-08 11h07.06.870636 +0100,
2,0,2,0,6,0,6,0,68.72141910000937,,None,1,D,A,1,,,13,none,2023-11-08_11h06.53.802,experiment,2023.2.2,59.96688628107922,2023-11-08 11h07.06.870636 +0100,
2,0,2,0,7,0,7,0,70.81968710001092,,None,1,E,D,1,,,13,none,2023-11-08_11h06.53.802,experiment,2023.2.2,59.96688628107922,2023-11-08 11h07.06.870636 +0100,
2,0,2,0,8,0,8,0,72.91798820000258,,None,1,D,E,1,,,13,none,2023-11-08_11h06.53.802,experiment,2023.2.2,59.96688628107922,2023-11-08 11h07.06.870636 +0100,
2,0,2,0,9,0,9,0,75.01627630001167,,None,1,U,D,1,,,13,none,2023-11-08_11h06.53.802,experiment,2023.2.2,59.96688628107922,2023-11-08 11h07.06.870636 +0100,
2,0,2,0,10,0,10,0,77.12398920001579,,None,1,S,U,1,,,13,none,2023-11-08_11h06.53.802,experiment,2023.2.2,59.96688628107922,2023-11-08 11h07.06.870636 +0100,
2,0,2,0,11,0,11,0,79.21452660000068,,None,1,K,S,1,,,13,none,2023-11-08_11h06.53.802,experiment,2023.2.2,59.96688628107922,2023-11-08 11h07.06.870636 +0100,
2,0,2,0,,,,,,,,,,,,,,13,none,2023-11-08_11h06.53.802,experiment,2023.2.2,59.96688628107922,2023-11-08 11h07.06.870636 +0100,
3,0,3,0,0,0,0,0,82.0164078999951,,None,1,P,,1,,,13,none,2023-11-08_11h06.53.802,experiment,2023.2.2,59.96688628107922,2023-11-08 11h07.06.870636 +0100,
3,0,3,0,1,0,1,0,84.10834440001054,,None,1,M,P,1,,,13,none,2023-11-08_11h06.53.802,experiment,2023.2.2,59.96688628107922,2023-11-08 11h07.06.870636 +0100,
3,0,3,0,2,0,2,0,86.20676510001067,,None,1,P,M,1,,,13,none,2023-11-08_11h06.53.802,experiment,2023.2.2,59.96688628107922,2023-11-08 11h07.06.870636 +0100,
3,0,3,0,3,0,3,0,88.30540990000009,,None,1,J,P,1,,,13,none,2023-11-08_11h06.53.802,experiment,2023.2.2,59.96688628107922,2023-11-08 11h07.06.870636 +0100,
3,0,3,0,4,0,4,0,90.40353460001643,,None,1,Y,J,1,,,13,none,2023-11-08_11h06.53.802,experiment,2023.2.2,59.96688628107922,2023-11-08 11h07.06.870636 +0100,
3,0,3,0,5,0,5,0,92.50181960000191,,None,1,L,Y,1,,,13,none,2023-11-08_11h06.53.802,experiment,2023.2.2,59.96688628107922,2023-11-08 11h07.06.870636 +0100,
3,0,3,0,6,0,6,0,94.6001333000022,,None,1,Y,L,1,,,13,none,2023-11-08_11h06.53.802,experiment,2023.2.2,59.96688628107922,2023-11-08 11h07.06.870636 +0100,
3,0,3,0,7,0,7,0,96.7090787999914,,None,1,C,Y,1,,,13,none,2023-11-08_11h06.53.802,experiment,2023.2.2,59.96688628107922,2023-11-08 11h07.06.870636 +0100,
3,0,3,0,8,0,8,0,98.7968336000049,,None,1,G,C,1,,,13,none,2023-11-08_11h06.53.802,experiment,2023.2.2,59.96688628107922,2023-11-08 11h07.06.870636 +0100,
3,0,3,0,9,0,9,0,100.90280159999384,,None,1,O,G,1,,,13,none,2023-11-08_11h06.53.802,experiment,2023.2.2,59.96688628107922,2023-11-08 11h07.06.870636 +0100,
3,0,3,0,10,0,10,0,102.99342469999101,,None,1,S,O,1,,,13,none,2023-11-08_11h06.53.802,experiment,2023.2.2,59.96688628107922,2023-11-08 11h07.06.870636 +0100,
3,0,3,0,11,0,11,0,105.09645159999491,,None,1,R,S,1,,,13,none,2023-11-08_11h06.53.802,experiment,2023.2.2,59.96688628107922,2023-11-08 11h07.06.870636 +0100,
3,0,3,0,,,,,,,,,,,,,,13,none,2023-11-08_11h06.53.802,experiment,2023.2.2,59.96688628107922,2023-11-08 11h07.06.870636 +0100,
4,0,4,0,0,0,0,0,108.10895809999784,,None,1,W,,1,,,13,none,2023-11-08_11h06.53.802,experiment,2023.2.2,59.96688628107922,2023-11-08 11h07.06.870636 +0100,
4,0,4,0,1,0,1,0,110.20498080001562,,None,1,L,W,1,,,13,none,2023-11-08_11h06.53.802,experiment,2023.2.2,59.96688628107922,2023-11-08 11h07.06.870636 +0100,
4,0,4,0,2,0,2,0,112.30221880000317,,None,1,A,L,1,,,13,none,2023-11-08_11h06.53.802,experiment,2023.2.2,59.96688628107922,2023-11-08 11h07.06.870636 +0100,
4,0,4,0,3,0,3,0,114.41374799999176,,None,1,H,A,1,,,13,none,2023-11-08_11h06.53.802,experiment,2023.2.2,59.96688628107922,2023-11-08 11h07.06.870636 +0100,
4,0,4,0,4,0,4,0,116.50936669998919,,None,1,Q,H,1,,,13,none,2023-11-08_11h06.53.802,experiment,2023.2.2,59.96688628107922,2023-11-08 11h07.06.870636 +0100,
4,0,4,0,5,0,5,0,118.59715799998958,,None,1,G,Q,1,,,13,none,2023-11-08_11h06.53.802,experiment,2023.2.2,59.96688628107922,2023-11-08 11h07.06.870636 +0100,
4,0,4,0,6,0,6,0,120.69531840001582,,None,1,V,G,1,,,13,none,2023-11-08_11h06.53.802,experiment,2023.2.2,59.96688628107922,2023-11-08 11h07.06.870636 +0100,
4,0,4,0,7,0,7,0,122.79349420001381,,None,1,A,V,1,,,13,none,2023-11-08_11h06.53.802,experiment,2023.2.2,59.96688628107922,2023-11-08 11h07.06.870636 +0100,
4,0,4,0,8,0,8,0,124.89179059999879,,None,1,Q,A,1,,,13,none,2023-11-08_11h06.53.802,experiment,2023.2.2,59.96688628107922,2023-11-08 11h07.06.870636 +0100,
4,0,4,0,9,0,9,0,126.99004400000558,,None,1,O,Q,1,,,13,none,2023-11-08_11h06.53.802,experiment,2023.2.2,59.96688628107922,2023-11-08 11h07.06.870636 +0100,
4,0,4,0,10,0,10,0,129.0883015000145,,None,1,Z,O,1,,,13,none,2023-11-08_11h06.53.802,experiment,2023.2.2,59.96688628107922,2023-11-08 11h07.06.870636 +0100,
4,0,4,0,11,0,11,0,131.18793660000665,,None,1,I,Z,1,,,13,none,2023-11-08_11h06.53.802,experiment,2023.2.2,59.96688628107922,2023-11-08 11h07.06.870636 +0100,
4,0,4,0,,,,,,,,,,,,,,13,none,2023-11-08_11h06.53.802,experiment,2023.2.2,59.96688628107922,2023-11-08 11h07.06.870636 +0100,
5,0,5,0,0,0,0,0,139.36308609999833,,None,1,M,,2,,,13,none,2023-11-08_11h06.53.802,experiment,2023.2.2,59.96688628107922,2023-11-08 11h07.06.870636 +0100,
5,0,5,0,1,0,1,0,141.46177339999122,,None,1,M,,2,,,13,none,2023-11-08_11h06.53.802,experiment,2023.2.2,59.96688628107922,2023-11-08 11h07.06.870636 +0100,
5,0,5,0,2,0,2,0,143.55974110000534,,None,1,X,M,2,,,13,none,2023-11-08_11h06.53.802,experiment,2023.2.2,59.96688628107922,2023-11-08 11h07.06.870636 +0100,
5,0,5,0,3,0,3,0,145.6582158000092,,None,1,C,M,2,,,13,none,2023-11-08_11h06.53.802,experiment,2023.2.2,59.96688628107922,2023-11-08 11h07.06.870636 +0100,
5,0,5,0,4,0,4,0,147.75608230000944,,None,1,O,X,2,,,13,none,2023-11-08_11h06.53.802,experiment,2023.2.2,59.96688628107922,2023-11-08 11h07.06.870636 +0100,
5,0,5,0,5,0,5,0,149.85465439999825,,None,1,Q,C,2,,,13,none,2023-11-08_11h06.53.802,experiment,2023.2.2,59.96688628107922,2023-11-08 11h07.06.870636 +0100,
5,0,5,0,6,0,6,0,151.95280719999573,,None,1,J,O,2,,,13,none,2023-11-08_11h06.53.802,experiment,2023.2.2,59.96688628107922,2023-11-08 11h07.06.870636 +0100,
5,0,5,0,7,0,7,0,154.05181649999577,,None,1,E,Q,2,,,13,none,2023-11-08_11h06.53.802,experiment,2023.2.2,59.96688628107922,2023-11-08 11h07.06.870636 +0100,
5,0,5,0,8,0,8,0,156.14922540000407,,None,1,C,J,2,,,13,none,2023-11-08_11h06.53.802,experiment,2023.2.2,59.96688628107922,2023-11-08 11h07.06.870636 +0100,
5,0,5,0,9,0,9,0,158.24761069999659,,None,1,F,E,2,,,13,none,2023-11-08_11h06.53.802,experiment,2023.2.2,59.96688628107922,2023-11-08 11h07.06.870636 +0100,
5,0,5,0,10,0,10,0,160.34594739999739,,None,1,U,C,2,,,13,none,2023-11-08_11h06.53.802,experiment,2023.2.2,59.96688628107922,2023-11-08 11h07.06.870636 +0100,
5,0,5,0,11,0,11,0,162.44425520001096,,None,1,Q,F,2,,,13,none,2023-11-08_11h06.53.802,experiment,2023.2.2,59.96688628107922,2023-11-08 11h07.06.870636 +0100,
5,0,5,0,,,,,,,,,,,,,,13,none,2023-11-08_11h06.53.802,experiment,2023.2.2,59.96688628107922,2023-11-08 11h07.06.870636 +0100,
6,0,6,0,0,0,0,0,165.37729559998843,,None,1,B,,2,,,13,none,2023-11-08_11h06.53.802,experiment,2023.2.2,59.96688628107922,2023-11-08 11h07.06.870636 +0100,
6,0,6,0,1,0,1,0,167.47344319999684,,None,1,W,,2,,,13,none,2023-11-08_11h06.53.802,experiment,2023.2.2,59.96688628107922,2023-11-08 11h07.06.870636 +0100,
6,0,6,0,2,0,2,0,169.57163109999965,,None,1,V,B,2,,,13,none,2023-11-08_11h06.53.802,experiment,2023.2.2,59.96688628107922,2023-11-08 11h07.06.870636 +0100,
6,0,6,0,3,0,3,0,171.66989620000822,,None,1,O,W,2,,,13,none,2023-11-08_11h06.53.802,experiment,2023.2.2,59.96688628107922,2023-11-08 11h07.06.870636 +0100,
6,0,6,0,4,0,4,0,173.76826800001436,,None,1,H,V,2,,,13,none,2023-11-08_11h06.53.802,experiment,2023.2.2,59.96688628107922,2023-11-08 11h07.06.870636 +0100,
6,0,6,0,5,0,5,0,175.86645900001167,,None,1,M,O,2,,,13,none,2023-11-08_11h06.53.802,experiment,2023.2.2,59.96688628107922,2023-11-08 11h07.06.870636 +0100,
6,0,6,0,6,0,6,0,177.96456110000145,,None,1,P,H,2,,,13,none,2023-11-08_11h06.53.802,experiment,2023.2.2,59.96688628107922,2023-11-08 11h07.06.870636 +0100,
6,0,6,0,7,0,7,0,180.06419299999834,,None,1,A,M,2,,,13,none,2023-11-08_11h06.53.802,experiment,2023.2.2,59.96688628107922,2023-11-08 11h07.06.870636 +0100,
6,0,6,0,8,0,8,0,182.16839599999366,,None,1,T,P,2,,,13,none,2023-11-08_11h06.53.802,experiment,2023.2.2,59.96688628107922,2023-11-08 11h07.06.870636 +0100,
6,0,6,0,9,0,9,0,184.25961649999954,,None,1,G,A,2,,,13,none,2023-11-08_11h06.53.802,experiment,2023.2.2,59.96688628107922,2023-11-08 11h07.06.870636 +0100,
6,0,6,0,10,0,10,0,186.35768980000285,,None,1,N,T,2,,,13,none,2023-11-08_11h06.53.802,experiment,2023.2.2,59.96688628107922,2023-11-08 11h07.06.870636 +0100,
6,0,6,0,11,0,11,0,188.4560429000121,,None,1,A,G,2,,,13,none,2023-11-08_11h06.53.802,experiment,2023.2.2,59.96688628107922,2023-11-08 11h07.06.870636 +0100,
6,0,6,0,,,,,,,,,,,,,,13,none,2023-11-08_11h06.53.802,experiment,2023.2.2,59.96688628107922,2023-11-08 11h07.06.870636 +0100,
7,0,7,0,0,0,0,0,191.25385909999022,,None,1,O,,2,,,13,none,2023-11-08_11h06.53.802,experiment,2023.2.2,59.96688628107922,2023-11-08 11h07.06.870636 +0100,
7,0,7,0,1,0,1,0,193.3521250000049,,None,1,L,,2,,,13,none,2023-11-08_11h06.53.802,experiment,2023.2.2,59.96688628107922,2023-11-08 11h07.06.870636 +0100,
7,0,7,0,2,0,2,0,195.45030389999738,,['space'],1,O,O,2,[1.122421400010353],[None],13,none,2023-11-08_11h06.53.802,experiment,2023.2.2,59.96688628107922,2023-11-08 11h07.06.870636 +0100,
7,0,7,0,3,0,3,0,197.54907480001566,,None,1,F,L,2,,,13,none,2023-11-08_11h06.53.802,experiment,2023.2.2,59.96688628107922,2023-11-08 11h07.06.870636 +0100,
7,0,7,0,4,0,4,0,199.64701549999882,,None,1,C,O,2,,,13,none,2023-11-08_11h06.53.802,experiment,2023.2.2,59.96688628107922,2023-11-08 11h07.06.870636 +0100,
7,0,7,0,5,0,5,0,201.745413800003,,None,1,Z,F,2,,,13,none,2023-11-08_11h06.53.802,experiment,2023.2.2,59.96688628107922,2023-11-08 11h07.06.870636 +0100,
7,0,7,0,6,0,6,0,203.843412599992,,None,1,J,C,2,,,13,none,2023-11-08_11h06.53.802,experiment,2023.2.2,59.96688628107922,2023-11-08 11h07.06.870636 +0100,
7,0,7,0,7,0,7,0,205.9426742999931,,None,1,C,Z,2,,,13,none,2023-11-08_11h06.53.802,experiment,2023.2.2,59.96688628107922,2023-11-08 11h07.06.870636 +0100,
7,0,7,0,8,0,8,0,208.04007200000342,,None,1,U,J,2,,,13,none,2023-11-08_11h06.53.802,experiment,2023.2.2,59.96688628107922,2023-11-08 11h07.06.870636 +0100,
7,0,7,0,9,0,9,0,210.1382077000162,,['space'],0,U,C,2,[1.2059442000172567],[None],13,none,2023-11-08_11h06.53.802,experiment,2023.2.2,59.96688628107922,2023-11-08 11h07.06.870636 +0100,
7,0,7,0,10,0,10,0,212.23653660001582,,None,1,A,U,2,,,13,none,2023-11-08_11h06.53.802,experiment,2023.2.2,59.96688628107922,2023-11-08 11h07.06.870636 +0100,
7,0,7,0,11,0,11,0,214.3351185999927,,['space'],1,U,U,2,[1.2120631999860052],[None],13,none,2023-11-08_11h06.53.802,experiment,2023.2.2,59.96688628107922,2023-11-08 11h07.06.870636 +0100,
7,0,7,0,,,,,,,,,,,,,,13,none,2023-11-08_11h06.53.802,experiment,2023.2.2,59.96688628107922,2023-11-08 11h07.06.870636 +0100,
