trials_3.thisRepN,trials_3.thisTrialN,trials_3.thisN,trials_3.thisIndex,trials.thisRepN,trials.thisTrialN,trials.thisN,trials.thisIndex,thisRow.t,notes,key_resp_2.keys,key_resp_2.corr,letter.routineEndVal,nback.routineEndVal,type.routineEndVal,key_resp_2.rt,key_resp_2.duration,participant,session,date,expName,psychopyVersion,frameRate,expStart,
0,0,0,0,0,0,0,0,1.8033980999898631,,None,1,T,,1,,,13,pink,2023-11-08_11h02.45.021,experiment,2023.2.2,60.02314492972524,2023-11-08 11h02.58.649509 +0100,
0,0,0,0,1,0,1,0,3.8987568999873474,,['space'],1,T,T,1,[0.6313936000224203],[None],13,pink,2023-11-08_11h02.45.021,experiment,2023.2.2,60.02314492972524,2023-11-08 11h02.58.649509 +0100,
0,0,0,0,2,0,2,0,6.008679399994435,,None,1,I,T,1,,,13,pink,2023-11-08_11h02.45.021,experiment,2023.2.2,60.02314492972524,2023-11-08 11h02.58.649509 +0100,
0,0,0,0,3,0,3,0,8.095198900002288,,['space'],1,I,I,1,[0.45548910001525655],[None],13,pink,2023-11-08_11h02.45.021,experiment,2023.2.2,60.02314492972524,2023-11-08 11h02.58.649509 +0100,
0,0,0,0,4,0,4,0,10.196613899985095,,None,1,N,I,1,,,13,pink,2023-11-08_11h02.45.021,experiment,2023.2.2,60.02314492972524,2023-11-08 11h02.58.649509 +0100,
0,0,0,0,5,0,5,0,12.301012999989325,,None,1,E,N,1,,,13,pink,2023-11-08_11h02.45.021,experiment,2023.2.2,60.02314492972524,2023-11-08 11h02.58.649509 +0100,
0,0,0,0,6,0,6,0,14.40049899998121,,None,1,L,E,1,,,13,pink,2023-11-08_11h02.45.021,experiment,2023.2.2,60.02314492972524,2023-11-08 11h02.58.649509 +0100,
0,0,0,0,7,0,7,0,16.488211899995804,,['space'],1,L,L,1,[0.5395529999805149],[None],13,pink,2023-11-08_11h02.45.021,experiment,2023.2.2,60.02314492972524,2023-11-08 11h02.58.649509 +0100,
0,0,0,0,8,0,8,0,18.58654689998366,,['space'],1,L,L,1,[0.5933866000268608],[None],13,pink,2023-11-08_11h02.45.021,experiment,2023.2.2,60.02314492972524,2023-11-08 11h02.58.649509 +0100,
0,0,0,0,9,0,9,0,20.69336839998141,,None,1,R,L,1,,,13,pink,2023-11-08_11h02.45.021,experiment,2023.2.2,60.02314492972524,2023-11-08 11h02.58.649509 +0100,
0,0,0,0,10,0,10,0,22.783126499998616,,['space'],1,R,R,1,[0.6970761999837123],[None],13,pink,2023-11-08_11h02.45.021,experiment,2023.2.2,60.02314492972524,2023-11-08 11h02.58.649509 +0100,
0,0,0,0,11,0,11,0,24.894358399993507,,None,1,U,R,1,,,13,pink,2023-11-08_11h02.45.021,experiment,2023.2.2,60.02314492972524,2023-11-08 11h02.58.649509 +0100,
0,0,0,0,,,,,,,,,,,,,,13,pink,2023-11-08_11h02.45.021,experiment,2023.2.2,60.02314492972524,2023-11-08 11h02.58.649509 +0100,
1,0,1,0,0,0,0,0,27.945247600000584,,None,1,I,,1,,,13,pink,2023-11-08_11h02.45.021,experiment,2023.2.2,60.02314492972524,2023-11-08 11h02.58.649509 +0100,
1,0,1,0,1,0,1,0,30.046032799989916,,None,1,D,I,1,,,13,pink,2023-11-08_11h02.45.021,experiment,2023.2.2,60.02314492972524,2023-11-08 11h02.58.649509 +0100,
1,0,1,0,2,0,2,0,32.141935899999226,,None,1,E,D,1,,,13,pink,2023-11-08_11h02.45.021,experiment,2023.2.2,60.02314492972524,2023-11-08 11h02.58.649509 +0100,
1,0,1,0,3,0,3,0,34.24029379998683,,None,1,A,E,1,,,13,pink,2023-11-08_11h02.45.021,experiment,2023.2.2,60.02314492972524,2023-11-08 11h02.58.649509 +0100,
1,0,1,0,4,0,4,0,36.35157339999569,,None,1,V,A,1,,,13,pink,2023-11-08_11h02.45.021,experiment,2023.2.2,60.02314492972524,2023-11-08 11h02.58.649509 +0100,
1,0,1,0,5,0,5,0,38.442305199976545,,None,1,H,V,1,,,13,pink,2023-11-08_11h02.45.021,experiment,2023.2.2,60.02314492972524,2023-11-08 11h02.58.649509 +0100,
1,0,1,0,6,0,6,0,40.5460392999812,,None,1,Z,H,1,,,13,pink,2023-11-08_11h02.45.021,experiment,2023.2.2,60.02314492972524,2023-11-08 11h02.58.649509 +0100,
1,0,1,0,7,0,7,0,42.63336569999228,,None,1,U,Z,1,,,13,pink,2023-11-08_11h02.45.021,experiment,2023.2.2,60.02314492972524,2023-11-08 11h02.58.649509 +0100,
1,0,1,0,8,0,8,0,44.74295709998114,,None,1,M,U,1,,,13,pink,2023-11-08_11h02.45.021,experiment,2023.2.2,60.02314492972524,2023-11-08 11h02.58.649509 +0100,
1,0,1,0,9,0,9,0,46.82969709997997,,None,1,H,M,1,,,13,pink,2023-11-08_11h02.45.021,experiment,2023.2.2,60.02314492972524,2023-11-08 11h02.58.649509 +0100,
1,0,1,0,10,0,10,0,48.940396299993154,,None,1,C,H,1,,,13,pink,2023-11-08_11h02.45.021,experiment,2023.2.2,60.02314492972524,2023-11-08 11h02.58.649509 +0100,
1,0,1,0,11,0,11,0,51.0265980999975,,['space'],1,C,C,1,[0.4657354000082705],[None],13,pink,2023-11-08_11h02.45.021,experiment,2023.2.2,60.02314492972524,2023-11-08 11h02.58.649509 +0100,
1,0,1,0,,,,,,,,,,,,,,13,pink,2023-11-08_11h02.45.021,experiment,2023.2.2,60.02314492972524,2023-11-08 11h02.58.649509 +0100,
2,0,2,0,0,0,0,0,54.08144359997823,,None,1,Q,,1,,,13,pink,2023-11-08_11h02.45.021,experiment,2023.2.2,60.02314492972524,2023-11-08 11h02.58.649509 +0100,
2,0,2,0,1,0,1,0,56.17193819998647,,None,1,A,Q,1,,,13,pink,2023-11-08_11h02.45.021,experiment,2023.2.2,60.02314492972524,2023-11-08 11h02.58.649509 +0100,
2,0,2,0,2,0,2,0,58.28165329998592,,None,1,W,A,1,,,13,pink,2023-11-08_11h02.45.021,experiment,2023.2.2,60.02314492972524,2023-11-08 11h02.58.649509 +0100,
2,0,2,0,3,0,3,0,60.36862009999459,,None,1,D,W,1,,,13,pink,2023-11-08_11h02.45.021,experiment,2023.2.2,60.02314492972524,2023-11-08 11h02.58.649509 +0100,
2,0,2,0,4,0,4,0,62.472233599983156,,None,1,J,D,1,,,13,pink,2023-11-08_11h02.45.021,experiment,2023.2.2,60.02314492972524,2023-11-08 11h02.58.649509 +0100,
2,0,2,0,5,0,5,0,64.57580829999642,,None,1,X,J,1,,,13,pink,2023-11-08_11h02.45.021,experiment,2023.2.2,60.02314492972524,2023-11-08 11h02.58.649509 +0100,
2,0,2,0,6,0,6,0,66.66347479997785,,None,1,N,X,1,,,13,pink,2023-11-08_11h02.45.021,experiment,2023.2.2,60.02314492972524,2023-11-08 11h02.58.649509 +0100,
2,0,2,0,7,0,7,0,68.7615986999881,,None,1,E,N,1,,,13,pink,2023-11-08_11h02.45.021,experiment,2023.2.2,60.02314492972524,2023-11-08 11h02.58.649509 +0100,
2,0,2,0,8,0,8,0,70.87609249999514,,None,1,O,E,1,,,13,pink,2023-11-08_11h02.45.021,experiment,2023.2.2,60.02314492972524,2023-11-08 11h02.58.649509 +0100,
2,0,2,0,9,0,9,0,72.95809089997783,,None,1,G,O,1,,,13,pink,2023-11-08_11h02.45.021,experiment,2023.2.2,60.02314492972524,2023-11-08 11h02.58.649509 +0100,
2,0,2,0,10,0,10,0,75.05669409999973,,None,1,C,G,1,,,13,pink,2023-11-08_11h02.45.021,experiment,2023.2.2,60.02314492972524,2023-11-08 11h02.58.649509 +0100,
2,0,2,0,11,0,11,0,77.15564149999409,,None,1,O,C,1,,,13,pink,2023-11-08_11h02.45.021,experiment,2023.2.2,60.02314492972524,2023-11-08 11h02.58.649509 +0100,
2,0,2,0,,,,,,,,,,,,,,13,pink,2023-11-08_11h02.45.021,experiment,2023.2.2,60.02314492972524,2023-11-08 11h02.58.649509 +0100,
3,0,3,0,0,0,0,0,80.25227749999613,,None,1,A,,2,,,13,pink,2023-11-08_11h02.45.021,experiment,2023.2.2,60.02314492972524,2023-11-08 11h02.58.649509 +0100,
3,0,3,0,1,0,1,0,82.35046709998278,,None,1,Q,,2,,,13,pink,2023-11-08_11h02.45.021,experiment,2023.2.2,60.02314492972524,2023-11-08 11h02.58.649509 +0100,
3,0,3,0,2,0,2,0,84.45060409998405,,None,1,D,A,2,,,13,pink,2023-11-08_11h02.45.021,experiment,2023.2.2,60.02314492972524,2023-11-08 11h02.58.649509 +0100,
3,0,3,0,3,0,3,0,86.54739849999896,,None,1,C,Q,2,,,13,pink,2023-11-08_11h02.45.021,experiment,2023.2.2,60.02314492972524,2023-11-08 11h02.58.649509 +0100,
3,0,3,0,4,0,4,0,88.64559689999442,,None,1,Q,D,2,,,13,pink,2023-11-08_11h02.45.021,experiment,2023.2.2,60.02314492972524,2023-11-08 11h02.58.649509 +0100,
3,0,3,0,5,0,5,0,90.75006130000111,,None,1,F,C,2,,,13,pink,2023-11-08_11h02.45.021,experiment,2023.2.2,60.02314492972524,2023-11-08 11h02.58.649509 +0100,
3,0,3,0,6,0,6,0,92.84828489998472,,None,1,B,Q,2,,,13,pink,2023-11-08_11h02.45.021,experiment,2023.2.2,60.02314492972524,2023-11-08 11h02.58.649509 +0100,
3,0,3,0,7,0,7,0,94.94022910000058,,['space'],1,F,F,2,[0.640048500004923],[None],13,pink,2023-11-08_11h02.45.021,experiment,2023.2.2,60.02314492972524,2023-11-08 11h02.58.649509 +0100,
3,0,3,0,8,0,8,0,97.04901249997783,,None,1,S,B,2,,,13,pink,2023-11-08_11h02.45.021,experiment,2023.2.2,60.02314492972524,2023-11-08 11h02.58.649509 +0100,
3,0,3,0,9,0,9,0,99.13671599997906,,['space'],0,S,F,2,[0.6377552000049036],[None],13,pink,2023-11-08_11h02.45.021,experiment,2023.2.2,60.02314492972524,2023-11-08 11h02.58.649509 +0100,
3,0,3,0,10,0,10,0,101.24986979999812,,None,1,Y,S,2,,,13,pink,2023-11-08_11h02.45.021,experiment,2023.2.2,60.02314492972524,2023-11-08 11h02.58.649509 +0100,
3,0,3,0,11,0,11,0,103.33320549997734,,None,1,N,S,2,,,13,pink,2023-11-08_11h02.45.021,experiment,2023.2.2,60.02314492972524,2023-11-08 11h02.58.649509 +0100,
3,0,3,0,,,,,,,,,,,,,,13,pink,2023-11-08_11h02.45.021,experiment,2023.2.2,60.02314492972524,2023-11-08 11h02.58.649509 +0100,
4,0,4,0,0,0,0,0,106.18900429998757,,None,1,P,,2,,,13,pink,2023-11-08_11h02.45.021,experiment,2023.2.2,60.02314492972524,2023-11-08 11h02.58.649509 +0100,
4,0,4,0,1,0,1,0,108.27927599998657,,None,1,S,,2,,,13,pink,2023-11-08_11h02.45.021,experiment,2023.2.2,60.02314492972524,2023-11-08 11h02.58.649509 +0100,
4,0,4,0,2,0,2,0,110.37748289998854,,None,1,F,P,2,,,13,pink,2023-11-08_11h02.45.021,experiment,2023.2.2,60.02314492972524,2023-11-08 11h02.58.649509 +0100,
4,0,4,0,3,0,3,0,112.47573089998332,,None,1,P,S,2,,,13,pink,2023-11-08_11h02.45.021,experiment,2023.2.2,60.02314492972524,2023-11-08 11h02.58.649509 +0100,
4,0,4,0,4,0,4,0,114.57410689999233,,['space'],0,S,F,2,[1.4529513999877963],[None],13,pink,2023-11-08_11h02.45.021,experiment,2023.2.2,60.02314492972524,2023-11-08 11h02.58.649509 +0100,
4,0,4,0,5,0,5,0,116.67226279998431,,None,1,W,P,2,,,13,pink,2023-11-08_11h02.45.021,experiment,2023.2.2,60.02314492972524,2023-11-08 11h02.58.649509 +0100,
4,0,4,0,6,0,6,0,118.77057189997868,,None,1,L,S,2,,,13,pink,2023-11-08_11h02.45.021,experiment,2023.2.2,60.02314492972524,2023-11-08 11h02.58.649509 +0100,
4,0,4,0,7,0,7,0,120.86933220000356,,None,1,B,W,2,,,13,pink,2023-11-08_11h02.45.021,experiment,2023.2.2,60.02314492972524,2023-11-08 11h02.58.649509 +0100,
4,0,4,0,8,0,8,0,122.96717369998805,,None,1,P,L,2,,,13,pink,2023-11-08_11h02.45.021,experiment,2023.2.2,60.02314492972524,2023-11-08 11h02.58.649509 +0100,
4,0,4,0,9,0,9,0,125.06541569999536,,None,1,D,B,2,,,13,pink,2023-11-08_11h02.45.021,experiment,2023.2.2,60.02314492972524,2023-11-08 11h02.58.649509 +0100,
4,0,4,0,10,0,10,0,127.16391169998678,,None,1,Z,P,2,,,13,pink,2023-11-08_11h02.45.021,experiment,2023.2.2,60.02314492972524,2023-11-08 11h02.58.649509 +0100,
4,0,4,0,11,0,11,0,129.26210589997936,,None,1,J,D,2,,,13,pink,2023-11-08_11h02.45.021,experiment,2023.2.2,60.02314492972524,2023-11-08 11h02.58.649509 +0100,
4,0,4,0,,,,,,,,,,,,,,13,pink,2023-11-08_11h02.45.021,experiment,2023.2.2,60.02314492972524,2023-11-08 11h02.58.649509 +0100,
5,0,5,0,0,0,0,0,132.15782699998817,,None,1,K,,2,,,13,pink,2023-11-08_11h02.45.021,experiment,2023.2.2,60.02314492972524,2023-11-08 11h02.58.649509 +0100,
5,0,5,0,1,0,1,0,134.2409301000007,,None,1,M,,2,,,13,pink,2023-11-08_11h02.45.021,experiment,2023.2.2,60.02314492972524,2023-11-08 11h02.58.649509 +0100,
5,0,5,0,2,0,2,0,136.33940669998992,,None,1,L,K,2,,,13,pink,2023-11-08_11h02.45.021,experiment,2023.2.2,60.02314492972524,2023-11-08 11h02.58.649509 +0100,
5,0,5,0,3,0,3,0,138.43780419998802,,None,1,L,M,2,,,13,pink,2023-11-08_11h02.45.021,experiment,2023.2.2,60.02314492972524,2023-11-08 11h02.58.649509 +0100,
5,0,5,0,4,0,4,0,140.5356312999793,,None,1,K,L,2,,,13,pink,2023-11-08_11h02.45.021,experiment,2023.2.2,60.02314492972524,2023-11-08 11h02.58.649509 +0100,
5,0,5,0,5,0,5,0,142.63407050000387,,['space'],1,L,L,2,[1.0219463999965228],[None],13,pink,2023-11-08_11h02.45.021,experiment,2023.2.2,60.02314492972524,2023-11-08 11h02.58.649509 +0100,
5,0,5,0,6,0,6,0,144.73284419998527,,None,1,I,K,2,,,13,pink,2023-11-08_11h02.45.021,experiment,2023.2.2,60.02314492972524,2023-11-08 11h02.58.649509 +0100,
5,0,5,0,7,0,7,0,146.83078920000116,,None,1,B,L,2,,,13,pink,2023-11-08_11h02.45.021,experiment,2023.2.2,60.02314492972524,2023-11-08 11h02.58.649509 +0100,
5,0,5,0,8,0,8,0,148.92909729998792,,None,1,E,I,2,,,13,pink,2023-11-08_11h02.45.021,experiment,2023.2.2,60.02314492972524,2023-11-08 11h02.58.649509 +0100,
5,0,5,0,9,0,9,0,151.02731389997643,,None,1,W,B,2,,,13,pink,2023-11-08_11h02.45.021,experiment,2023.2.2,60.02314492972524,2023-11-08 11h02.58.649509 +0100,
5,0,5,0,10,0,10,0,153.12552179998602,,None,1,I,E,2,,,13,pink,2023-11-08_11h02.45.021,experiment,2023.2.2,60.02314492972524,2023-11-08 11h02.58.649509 +0100,
5,0,5,0,11,0,11,0,155.2239410999755,,None,1,C,W,2,,,13,pink,2023-11-08_11h02.45.021,experiment,2023.2.2,60.02314492972524,2023-11-08 11h02.58.649509 +0100,
5,0,5,0,,,,,,,,,,,,,,13,pink,2023-11-08_11h02.45.021,experiment,2023.2.2,60.02314492972524,2023-11-08 11h02.58.649509 +0100,
6,0,6,0,0,0,0,0,158.02365979997558,,None,1,N,,1,,,13,pink,2023-11-08_11h02.45.021,experiment,2023.2.2,60.02314492972524,2023-11-08 11h02.58.649509 +0100,
6,0,6,0,1,0,1,0,160.11960439998074,,None,1,J,N,1,,,13,pink,2023-11-08_11h02.45.021,experiment,2023.2.2,60.02314492972524,2023-11-08 11h02.58.649509 +0100,
6,0,6,0,2,0,2,0,162.2179339999857,,None,1,Y,J,1,,,13,pink,2023-11-08_11h02.45.021,experiment,2023.2.2,60.02314492972524,2023-11-08 11h02.58.649509 +0100,
6,0,6,0,3,0,3,0,164.31620279999333,,None,1,H,Y,1,,,13,pink,2023-11-08_11h02.45.021,experiment,2023.2.2,60.02314492972524,2023-11-08 11h02.58.649509 +0100,
6,0,6,0,4,0,4,0,166.41470579997986,,None,1,I,H,1,,,13,pink,2023-11-08_11h02.45.021,experiment,2023.2.2,60.02314492972524,2023-11-08 11h02.58.649509 +0100,
6,0,6,0,5,0,5,0,168.51297449998674,,None,1,R,I,1,,,13,pink,2023-11-08_11h02.45.021,experiment,2023.2.2,60.02314492972524,2023-11-08 11h02.58.649509 +0100,
6,0,6,0,6,0,6,0,170.6112468999927,,None,1,Z,R,1,,,13,pink,2023-11-08_11h02.45.021,experiment,2023.2.2,60.02314492972524,2023-11-08 11h02.58.649509 +0100,
6,0,6,0,7,0,7,0,172.7094206000038,,None,1,S,Z,1,,,13,pink,2023-11-08_11h02.45.021,experiment,2023.2.2,60.02314492972524,2023-11-08 11h02.58.649509 +0100,
6,0,6,0,8,0,8,0,174.80789499997627,,None,1,G,S,1,,,13,pink,2023-11-08_11h02.45.021,experiment,2023.2.2,60.02314492972524,2023-11-08 11h02.58.649509 +0100,
6,0,6,0,9,0,9,0,176.90594899997814,,None,1,Q,G,1,,,13,pink,2023-11-08_11h02.45.021,experiment,2023.2.2,60.02314492972524,2023-11-08 11h02.58.649509 +0100,
6,0,6,0,10,0,10,0,179.00697970000328,,None,1,A,Q,1,,,13,pink,2023-11-08_11h02.45.021,experiment,2023.2.2,60.02314492972524,2023-11-08 11h02.58.649509 +0100,
6,0,6,0,11,0,11,0,181.10257789999014,,None,1,Q,A,1,,,13,pink,2023-11-08_11h02.45.021,experiment,2023.2.2,60.02314492972524,2023-11-08 11h02.58.649509 +0100,
6,0,6,0,,,,,,,,,,,,,,13,pink,2023-11-08_11h02.45.021,experiment,2023.2.2,60.02314492972524,2023-11-08 11h02.58.649509 +0100,
7,0,7,0,0,0,0,0,184.05000619997736,,None,1,E,,2,,,13,pink,2023-11-08_11h02.45.021,experiment,2023.2.2,60.02314492972524,2023-11-08 11h02.58.649509 +0100,
7,0,7,0,1,0,1,0,186.1482475999801,,None,1,S,,2,,,13,pink,2023-11-08_11h02.45.021,experiment,2023.2.2,60.02314492972524,2023-11-08 11h02.58.649509 +0100,
7,0,7,0,2,0,2,0,188.24665839999216,,None,1,G,E,2,,,13,pink,2023-11-08_11h02.45.021,experiment,2023.2.2,60.02314492972524,2023-11-08 11h02.58.649509 +0100,
7,0,7,0,3,0,3,0,190.34589709999273,,None,1,O,S,2,,,13,pink,2023-11-08_11h02.45.021,experiment,2023.2.2,60.02314492972524,2023-11-08 11h02.58.649509 +0100,
7,0,7,0,4,0,4,0,192.44314819999272,,None,1,R,G,2,,,13,pink,2023-11-08_11h02.45.021,experiment,2023.2.2,60.02314492972524,2023-11-08 11h02.58.649509 +0100,
7,0,7,0,5,0,5,0,194.54255769998417,,None,1,K,O,2,,,13,pink,2023-11-08_11h02.45.021,experiment,2023.2.2,60.02314492972524,2023-11-08 11h02.58.649509 +0100,
7,0,7,0,6,0,6,0,196.63990049998392,,None,1,T,R,2,,,13,pink,2023-11-08_11h02.45.021,experiment,2023.2.2,60.02314492972524,2023-11-08 11h02.58.649509 +0100,
7,0,7,0,7,0,7,0,198.73797629997716,,None,1,L,K,2,,,13,pink,2023-11-08_11h02.45.021,experiment,2023.2.2,60.02314492972524,2023-11-08 11h02.58.649509 +0100,
7,0,7,0,8,0,8,0,200.8361925999925,,None,1,W,T,2,,,13,pink,2023-11-08_11h02.45.021,experiment,2023.2.2,60.02314492972524,2023-11-08 11h02.58.649509 +0100,
7,0,7,0,9,0,9,0,202.9345267000026,,None,1,N,L,2,,,13,pink,2023-11-08_11h02.45.021,experiment,2023.2.2,60.02314492972524,2023-11-08 11h02.58.649509 +0100,
7,0,7,0,10,0,10,0,205.03293109999504,,None,1,K,W,2,,,13,pink,2023-11-08_11h02.45.021,experiment,2023.2.2,60.02314492972524,2023-11-08 11h02.58.649509 +0100,
7,0,7,0,11,0,11,0,207.13112720000208,,None,1,O,N,2,,,13,pink,2023-11-08_11h02.45.021,experiment,2023.2.2,60.02314492972524,2023-11-08 11h02.58.649509 +0100,
7,0,7,0,,,,,,,,,,,,,,13,pink,2023-11-08_11h02.45.021,experiment,2023.2.2,60.02314492972524,2023-11-08 11h02.58.649509 +0100,
