trials_3.thisRepN,trials_3.thisTrialN,trials_3.thisN,trials_3.thisIndex,trials.thisRepN,trials.thisTrialN,trials.thisN,trials.thisIndex,thisRow.t,notes,key_resp_2.keys,key_resp_2.corr,letter.routineEndVal,nback.routineEndVal,type.routineEndVal,key_resp_2.rt,key_resp_2.duration,participant,session,date,expName,psychopyVersion,frameRate,expStart,
0,0,0,0,0,0,0,0,1.4855051659978926,,None,1,L,,2,,,200,silence,2023-11-18_15h23.02.231,experiment,2023.2.2,None,2023-11-18 15h23.17.600331 +0100,
0,0,0,0,1,0,1,0,3.5652001660200767,,None,1,F,,2,,,200,silence,2023-11-18_15h23.02.231,experiment,2023.2.2,None,2023-11-18 15h23.17.600331 +0100,
0,0,0,0,2,0,2,0,5.655008249974344,,['space'],1,L,L,2,[0.8141363330068998],[None],200,silence,2023-11-18_15h23.02.231,experiment,2023.2.2,None,2023-11-18 15h23.17.600331 +0100,
0,0,0,0,3,0,3,0,7.7398465409642085,,None,1,W,F,2,,,200,silence,2023-11-18_15h23.02.231,experiment,2023.2.2,None,2023-11-18 15h23.17.600331 +0100,
0,0,0,0,4,0,4,0,9.830223665980157,,['space'],1,L,L,2,[0.5241843750118278],[None],200,silence,2023-11-18_15h23.02.231,experiment,2023.2.2,None,2023-11-18 15h23.17.600331 +0100,
0,0,0,0,5,0,5,0,11.91599062498426,,None,1,M,W,2,,,200,silence,2023-11-18_15h23.02.231,experiment,2023.2.2,None,2023-11-18 15h23.17.600331 +0100,
0,0,0,0,6,0,6,0,14.0047737499699,,['space'],1,L,L,2,[0.735197292000521],[None],200,silence,2023-11-18_15h23.02.231,experiment,2023.2.2,None,2023-11-18 15h23.17.600331 +0100,
0,0,0,0,7,0,7,0,16.094797166006174,,None,1,C,M,2,,,200,silence,2023-11-18_15h23.02.231,experiment,2023.2.2,None,2023-11-18 15h23.17.600331 +0100,
0,0,0,0,8,0,8,0,18.182340374973137,,None,1,H,L,2,,,200,silence,2023-11-18_15h23.02.231,experiment,2023.2.2,None,2023-11-18 15h23.17.600331 +0100,
0,0,0,0,9,0,9,0,20.263864332984667,,['space'],1,C,C,2,[0.6878311249893159],[None],200,silence,2023-11-18_15h23.02.231,experiment,2023.2.2,None,2023-11-18 15h23.17.600331 +0100,
0,0,0,0,10,0,10,0,22.350629874970764,,None,1,P,H,2,,,200,silence,2023-11-18_15h23.02.231,experiment,2023.2.2,None,2023-11-18 15h23.17.600331 +0100,
0,0,0,0,11,0,11,0,24.442472541006282,,['space'],1,C,C,2,[0.5451089999987744],[None],200,silence,2023-11-18_15h23.02.231,experiment,2023.2.2,None,2023-11-18 15h23.17.600331 +0100,
0,0,0,0,,,,,,,,,,,,,,200,silence,2023-11-18_15h23.02.231,experiment,2023.2.2,None,2023-11-18 15h23.17.600331 +0100,
1,0,1,0,0,0,0,0,27.30812383297598,,None,1,H,,2,,,200,silence,2023-11-18_15h23.02.231,experiment,2023.2.2,None,2023-11-18 15h23.17.600331 +0100,
1,0,1,0,1,0,1,0,29.39421683299588,,None,1,U,,2,,,200,silence,2023-11-18_15h23.02.231,experiment,2023.2.2,None,2023-11-18 15h23.17.600331 +0100,
1,0,1,0,2,0,2,0,31.477742290997412,,None,1,Q,H,2,,,200,silence,2023-11-18_15h23.02.231,experiment,2023.2.2,None,2023-11-18 15h23.17.600331 +0100,
1,0,1,0,3,0,3,0,33.57225724996533,,['space'],0,Q,U,2,[1.6710167909623124],[None],200,silence,2023-11-18_15h23.02.231,experiment,2023.2.2,None,2023-11-18 15h23.17.600331 +0100,
1,0,1,0,4,0,4,0,35.67617920797784,,None,1,J,Q,2,,,200,silence,2023-11-18_15h23.02.231,experiment,2023.2.2,None,2023-11-18 15h23.17.600331 +0100,
1,0,1,0,5,0,5,0,37.749821249977686,,None,0,Q,Q,2,,,200,silence,2023-11-18_15h23.02.231,experiment,2023.2.2,None,2023-11-18 15h23.17.600331 +0100,
1,0,1,0,6,0,6,0,39.8413395829848,,['space'],1,J,J,2,[0.5698469170019962],[None],200,silence,2023-11-18_15h23.02.231,experiment,2023.2.2,None,2023-11-18 15h23.17.600331 +0100,
1,0,1,0,7,0,7,0,41.92560675001005,,['space'],1,Q,Q,2,[0.9722434579744004],[None],200,silence,2023-11-18_15h23.02.231,experiment,2023.2.2,None,2023-11-18 15h23.17.600331 +0100,
1,0,1,0,8,0,8,0,44.01736820797669,,None,1,M,J,2,,,200,silence,2023-11-18_15h23.02.231,experiment,2023.2.2,None,2023-11-18 15h23.17.600331 +0100,
1,0,1,0,9,0,9,0,46.09557137498632,,None,0,Q,Q,2,,,200,silence,2023-11-18_15h23.02.231,experiment,2023.2.2,None,2023-11-18 15h23.17.600331 +0100,
1,0,1,0,10,0,10,0,48.182704249979,,None,1,V,M,2,,,200,silence,2023-11-18_15h23.02.231,experiment,2023.2.2,None,2023-11-18 15h23.17.600331 +0100,
1,0,1,0,11,0,11,0,50.27116775000468,,None,0,Q,Q,2,,,200,silence,2023-11-18_15h23.02.231,experiment,2023.2.2,None,2023-11-18 15h23.17.600331 +0100,
1,0,1,0,,,,,,,,,,,,,,200,silence,2023-11-18_15h23.02.231,experiment,2023.2.2,None,2023-11-18 15h23.17.600331 +0100,
2,0,2,0,0,0,0,0,53.02966179099167,,None,1,K,,1,,,200,silence,2023-11-18_15h23.02.231,experiment,2023.2.2,None,2023-11-18 15h23.17.600331 +0100,
2,0,2,0,1,0,1,0,55.11789624998346,,['space'],1,K,K,1,[0.5582940410240553],[None],200,silence,2023-11-18_15h23.02.231,experiment,2023.2.2,None,2023-11-18 15h23.17.600331 +0100,
2,0,2,0,2,0,2,0,57.20728529099142,,['space'],1,K,K,1,[0.6776295420131646],[None],200,silence,2023-11-18_15h23.02.231,experiment,2023.2.2,None,2023-11-18 15h23.17.600331 +0100,
2,0,2,0,3,0,3,0,59.301260375010315,,['space'],1,K,K,1,[0.46834291599225253],[None],200,silence,2023-11-18_15h23.02.231,experiment,2023.2.2,None,2023-11-18 15h23.17.600331 +0100,
2,0,2,0,4,0,4,0,61.38225629099179,,['space'],1,K,K,1,[0.7415506250108592],[None],200,silence,2023-11-18_15h23.02.231,experiment,2023.2.2,None,2023-11-18 15h23.17.600331 +0100,
2,0,2,0,5,0,5,0,63.48010412498843,,['space'],1,K,K,1,[0.46492450003279373],[None],200,silence,2023-11-18_15h23.02.231,experiment,2023.2.2,None,2023-11-18 15h23.17.600331 +0100,
2,0,2,0,6,0,6,0,65.56330183299724,,None,1,A,K,1,,,200,silence,2023-11-18_15h23.02.231,experiment,2023.2.2,None,2023-11-18 15h23.17.600331 +0100,
2,0,2,0,7,0,7,0,67.65466187498532,,['space'],0,K,A,1,[0.6018571250024252],[None],200,silence,2023-11-18_15h23.02.231,experiment,2023.2.2,None,2023-11-18 15h23.17.600331 +0100,
2,0,2,0,8,0,8,0,69.74408445798326,,['space'],1,K,K,1,[1.0433428750257008],[None],200,silence,2023-11-18_15h23.02.231,experiment,2023.2.2,None,2023-11-18 15h23.17.600331 +0100,
2,0,2,0,9,0,9,0,71.859561958001,,None,1,T,K,1,,,200,silence,2023-11-18_15h23.02.231,experiment,2023.2.2,None,2023-11-18 15h23.17.600331 +0100,
2,0,2,0,10,0,10,0,73.9282986659673,,None,1,R,T,1,,,200,silence,2023-11-18_15h23.02.231,experiment,2023.2.2,None,2023-11-18 15h23.17.600331 +0100,
2,0,2,0,11,0,11,0,76.01749399997061,,None,0,R,R,1,,,200,silence,2023-11-18_15h23.02.231,experiment,2023.2.2,None,2023-11-18 15h23.17.600331 +0100,
2,0,2,0,,,,,,,,,,,,,,200,silence,2023-11-18_15h23.02.231,experiment,2023.2.2,None,2023-11-18 15h23.17.600331 +0100,
3,0,3,0,0,0,0,0,78.70835379097844,,None,1,J,,1,,,200,silence,2023-11-18_15h23.02.231,experiment,2023.2.2,None,2023-11-18 15h23.17.600331 +0100,
3,0,3,0,1,0,1,0,80.796884957992,,['space'],1,J,J,1,[1.8043131660087965],[None],200,silence,2023-11-18_15h23.02.231,experiment,2023.2.2,None,2023-11-18 15h23.17.600331 +0100,
3,0,3,0,2,0,2,0,82.87925270799315,,None,1,T,J,1,,,200,silence,2023-11-18_15h23.02.231,experiment,2023.2.2,None,2023-11-18 15h23.17.600331 +0100,
3,0,3,0,3,0,3,0,84.9690289159771,,None,0,T,T,1,,,200,silence,2023-11-18_15h23.02.231,experiment,2023.2.2,None,2023-11-18 15h23.17.600331 +0100,
3,0,3,0,4,0,4,0,87.06570854102029,,None,1,B,T,1,,,200,silence,2023-11-18_15h23.02.231,experiment,2023.2.2,None,2023-11-18 15h23.17.600331 +0100,
3,0,3,0,5,0,5,0,89.15557091601659,,None,0,B,B,1,,,200,silence,2023-11-18_15h23.02.231,experiment,2023.2.2,None,2023-11-18 15h23.17.600331 +0100,
3,0,3,0,6,0,6,0,91.24337095796363,,None,1,Y,B,1,,,200,silence,2023-11-18_15h23.02.231,experiment,2023.2.2,None,2023-11-18 15h23.17.600331 +0100,
3,0,3,0,7,0,7,0,93.33722012501676,,None,1,K,Y,1,,,200,silence,2023-11-18_15h23.02.231,experiment,2023.2.2,None,2023-11-18 15h23.17.600331 +0100,
3,0,3,0,8,0,8,0,95.43306016601855,,None,1,B,K,1,,,200,silence,2023-11-18_15h23.02.231,experiment,2023.2.2,None,2023-11-18 15h23.17.600331 +0100,
3,0,3,0,9,0,9,0,97.53467199997976,,None,1,X,B,1,,,200,silence,2023-11-18_15h23.02.231,experiment,2023.2.2,None,2023-11-18 15h23.17.600331 +0100,
3,0,3,0,10,0,10,0,99.60431475000223,,None,1,L,X,1,,,200,silence,2023-11-18_15h23.02.231,experiment,2023.2.2,None,2023-11-18 15h23.17.600331 +0100,
3,0,3,0,11,0,11,0,101.69024941598764,,None,1,E,L,1,,,200,silence,2023-11-18_15h23.02.231,experiment,2023.2.2,None,2023-11-18 15h23.17.600331 +0100,
3,0,3,0,,,,,,,,,,,,,,200,silence,2023-11-18_15h23.02.231,experiment,2023.2.2,None,2023-11-18 15h23.17.600331 +0100,
4,0,4,0,0,0,0,0,104.65799258300103,,None,1,L,,1,,,200,silence,2023-11-18_15h23.02.231,experiment,2023.2.2,None,2023-11-18 15h23.17.600331 +0100,
4,0,4,0,1,0,1,0,106.74653925001621,,None,1,V,L,1,,,200,silence,2023-11-18_15h23.02.231,experiment,2023.2.2,None,2023-11-18 15h23.17.600331 +0100,
4,0,4,0,2,0,2,0,108.84271958301542,,['space'],1,V,V,1,[0.6857377089909278],[None],200,silence,2023-11-18_15h23.02.231,experiment,2023.2.2,None,2023-11-18 15h23.17.600331 +0100,
4,0,4,0,3,0,3,0,110.93428154097637,,['space'],1,V,V,1,[0.9123237910098396],[None],200,silence,2023-11-18_15h23.02.231,experiment,2023.2.2,None,2023-11-18 15h23.17.600331 +0100,
4,0,4,0,4,0,4,0,113.01671591599006,,None,1,E,V,1,,,200,silence,2023-11-18_15h23.02.231,experiment,2023.2.2,None,2023-11-18 15h23.17.600331 +0100,
4,0,4,0,5,0,5,0,115.11264129099436,,None,1,P,E,1,,,200,silence,2023-11-18_15h23.02.231,experiment,2023.2.2,None,2023-11-18 15h23.17.600331 +0100,
4,0,4,0,6,0,6,0,117.21377145801671,,None,1,S,P,1,,,200,silence,2023-11-18_15h23.02.231,experiment,2023.2.2,None,2023-11-18 15h23.17.600331 +0100,
4,0,4,0,7,0,7,0,119.2892366659944,,None,1,O,S,1,,,200,silence,2023-11-18_15h23.02.231,experiment,2023.2.2,None,2023-11-18 15h23.17.600331 +0100,
4,0,4,0,8,0,8,0,121.3697970409994,,None,1,P,O,1,,,200,silence,2023-11-18_15h23.02.231,experiment,2023.2.2,None,2023-11-18 15h23.17.600331 +0100,
4,0,4,0,9,0,9,0,123.46805070800474,,['space'],1,P,P,1,[0.4635520000010729],[None],200,silence,2023-11-18_15h23.02.231,experiment,2023.2.2,None,2023-11-18 15h23.17.600331 +0100,
4,0,4,0,10,0,10,0,125.55928612500429,,None,1,C,P,1,,,200,silence,2023-11-18_15h23.02.231,experiment,2023.2.2,None,2023-11-18 15h23.17.600331 +0100,
4,0,4,0,11,0,11,0,127.63709183299216,,None,1,G,C,1,,,200,silence,2023-11-18_15h23.02.231,experiment,2023.2.2,None,2023-11-18 15h23.17.600331 +0100,
4,0,4,0,,,,,,,,,,,,,,200,silence,2023-11-18_15h23.02.231,experiment,2023.2.2,None,2023-11-18 15h23.17.600331 +0100,
5,0,5,0,0,0,0,0,131.26215708296513,,None,1,Z,,2,,,200,silence,2023-11-18_15h23.02.231,experiment,2023.2.2,None,2023-11-18 15h23.17.600331 +0100,
5,0,5,0,1,0,1,0,133.3464847909636,,None,1,U,,2,,,200,silence,2023-11-18_15h23.02.231,experiment,2023.2.2,None,2023-11-18 15h23.17.600331 +0100,
5,0,5,0,2,0,2,0,135.42970074998448,,['space'],1,Z,Z,2,[0.41550379199907184],[None],200,silence,2023-11-18_15h23.02.231,experiment,2023.2.2,None,2023-11-18 15h23.17.600331 +0100,
5,0,5,0,3,0,3,0,137.52165283297654,,None,1,S,U,2,,,200,silence,2023-11-18_15h23.02.231,experiment,2023.2.2,None,2023-11-18 15h23.17.600331 +0100,
5,0,5,0,4,0,4,0,139.61365333298454,,['space'],1,Z,Z,2,[0.6754158749827184],[None],200,silence,2023-11-18_15h23.02.231,experiment,2023.2.2,None,2023-11-18 15h23.17.600331 +0100,
5,0,5,0,5,0,5,0,141.70096579100937,,None,1,O,S,2,,,200,silence,2023-11-18_15h23.02.231,experiment,2023.2.2,None,2023-11-18 15h23.17.600331 +0100,
5,0,5,0,6,0,6,0,143.78424599999562,,['space'],1,Z,Z,2,[0.703799499955494],[None],200,silence,2023-11-18_15h23.02.231,experiment,2023.2.2,None,2023-11-18 15h23.17.600331 +0100,
5,0,5,0,7,0,7,0,145.86767991597299,,None,1,H,O,2,,,200,silence,2023-11-18_15h23.02.231,experiment,2023.2.2,None,2023-11-18 15h23.17.600331 +0100,
5,0,5,0,8,0,8,0,147.95550433301833,,None,1,E,Z,2,,,200,silence,2023-11-18_15h23.02.231,experiment,2023.2.2,None,2023-11-18 15h23.17.600331 +0100,
5,0,5,0,9,0,9,0,150.03929458296625,,None,1,O,H,2,,,200,silence,2023-11-18_15h23.02.231,experiment,2023.2.2,None,2023-11-18 15h23.17.600331 +0100,
5,0,5,0,10,0,10,0,152.13443570799427,,['space'],1,E,E,2,[0.6332746249972843],[None],200,silence,2023-11-18_15h23.02.231,experiment,2023.2.2,None,2023-11-18 15h23.17.600331 +0100,
5,0,5,0,11,0,11,0,154.22179016598966,,['space'],1,O,O,2,[0.695400915981736],[None],200,silence,2023-11-18_15h23.02.231,experiment,2023.2.2,None,2023-11-18 15h23.17.600331 +0100,
5,0,5,0,,,,,,,,,,,,,,200,silence,2023-11-18_15h23.02.231,experiment,2023.2.2,None,2023-11-18 15h23.17.600331 +0100,
6,0,6,0,0,0,0,0,156.98059074999765,,None,1,W,,2,,,200,silence,2023-11-18_15h23.02.231,experiment,2023.2.2,None,2023-11-18 15h23.17.600331 +0100,
6,0,6,0,1,0,1,0,159.05521462496836,,None,1,U,,2,,,200,silence,2023-11-18_15h23.02.231,experiment,2023.2.2,None,2023-11-18 15h23.17.600331 +0100,
6,0,6,0,2,0,2,0,161.14264108298812,,['space'],1,W,W,2,[0.446356917032972],[None],200,silence,2023-11-18_15h23.02.231,experiment,2023.2.2,None,2023-11-18 15h23.17.600331 +0100,
6,0,6,0,3,0,3,0,163.2371801249683,,None,1,D,U,2,,,200,silence,2023-11-18_15h23.02.231,experiment,2023.2.2,None,2023-11-18 15h23.17.600331 +0100,
6,0,6,0,4,0,4,0,165.32473595801275,,['space'],1,W,W,2,[0.5537021250347607],[None],200,silence,2023-11-18_15h23.02.231,experiment,2023.2.2,None,2023-11-18 15h23.17.600331 +0100,
6,0,6,0,5,0,5,0,167.41650191601366,,None,1,E,D,2,,,200,silence,2023-11-18_15h23.02.231,experiment,2023.2.2,None,2023-11-18 15h23.17.600331 +0100,
6,0,6,0,6,0,6,0,169.5045947500039,,None,1,Z,W,2,,,200,silence,2023-11-18_15h23.02.231,experiment,2023.2.2,None,2023-11-18 15h23.17.600331 +0100,
6,0,6,0,7,0,7,0,171.6014173749718,,['space'],1,E,E,2,[0.430049583024811],[None],200,silence,2023-11-18_15h23.02.231,experiment,2023.2.2,None,2023-11-18 15h23.17.600331 +0100,
6,0,6,0,8,0,8,0,173.68117816600716,,None,1,B,Z,2,,,200,silence,2023-11-18_15h23.02.231,experiment,2023.2.2,None,2023-11-18 15h23.17.600331 +0100,
6,0,6,0,9,0,9,0,175.76638058299432,,['space'],1,E,E,2,[0.41243095899699256],[None],200,silence,2023-11-18_15h23.02.231,experiment,2023.2.2,None,2023-11-18 15h23.17.600331 +0100,
6,0,6,0,10,0,10,0,177.86770620796597,,None,1,E,B,2,,,200,silence,2023-11-18_15h23.02.231,experiment,2023.2.2,None,2023-11-18 15h23.17.600331 +0100,
6,0,6,0,11,0,11,0,179.960213207989,,['space'],1,E,E,2,[0.4728010830003768],[None],200,silence,2023-11-18_15h23.02.231,experiment,2023.2.2,None,2023-11-18 15h23.17.600331 +0100,
6,0,6,0,,,,,,,,,,,,,,200,silence,2023-11-18_15h23.02.231,experiment,2023.2.2,None,2023-11-18 15h23.17.600331 +0100,
7,0,7,0,0,0,0,0,182.5905746659846,,None,1,G,,1,,,200,silence,2023-11-18_15h23.02.231,experiment,2023.2.2,None,2023-11-18 15h23.17.600331 +0100,
7,0,7,0,1,0,1,0,184.68434491596418,,None,1,U,G,1,,,200,silence,2023-11-18_15h23.02.231,experiment,2023.2.2,None,2023-11-18 15h23.17.600331 +0100,
7,0,7,0,2,0,2,0,186.76510274998145,,['space'],1,U,U,1,[0.736164249945432],[None],200,silence,2023-11-18_15h23.02.231,experiment,2023.2.2,None,2023-11-18 15h23.17.600331 +0100,
7,0,7,0,3,0,3,0,188.87639225000748,,None,1,V,U,1,,,200,silence,2023-11-18_15h23.02.231,experiment,2023.2.2,None,2023-11-18 15h23.17.600331 +0100,
7,0,7,0,4,0,4,0,190.94573095801752,,None,1,L,V,1,,,200,silence,2023-11-18_15h23.02.231,experiment,2023.2.2,None,2023-11-18 15h23.17.600331 +0100,
7,0,7,0,5,0,5,0,193.03859345801175,,None,1,U,L,1,,,200,silence,2023-11-18_15h23.02.231,experiment,2023.2.2,None,2023-11-18 15h23.17.600331 +0100,
7,0,7,0,6,0,6,0,195.12172562500928,,None,1,P,U,1,,,200,silence,2023-11-18_15h23.02.231,experiment,2023.2.2,None,2023-11-18 15h23.17.600331 +0100,
7,0,7,0,7,0,7,0,197.20540616597282,,None,0,P,P,1,,,200,silence,2023-11-18_15h23.02.231,experiment,2023.2.2,None,2023-11-18 15h23.17.600331 +0100,
7,0,7,0,8,0,8,0,199.30187241599197,,['space'],1,P,P,1,[0.48639641696354374],[None],200,silence,2023-11-18_15h23.02.231,experiment,2023.2.2,None,2023-11-18 15h23.17.600331 +0100,
7,0,7,0,9,0,9,0,201.39266341598704,,None,1,H,P,1,,,200,silence,2023-11-18_15h23.02.231,experiment,2023.2.2,None,2023-11-18 15h23.17.600331 +0100,
7,0,7,0,10,0,10,0,203.4766882910044,,['space'],1,H,H,1,[0.5629655409720726],[None],200,silence,2023-11-18_15h23.02.231,experiment,2023.2.2,None,2023-11-18 15h23.17.600331 +0100,
7,0,7,0,11,0,11,0,205.56116899999324,,['space'],1,H,H,1,[0.598693625011947],[None],200,silence,2023-11-18_15h23.02.231,experiment,2023.2.2,None,2023-11-18 15h23.17.600331 +0100,
7,0,7,0,,,,,,,,,,,,,,200,silence,2023-11-18_15h23.02.231,experiment,2023.2.2,None,2023-11-18 15h23.17.600331 +0100,
