trials_3.thisRepN,trials_3.thisTrialN,trials_3.thisN,trials_3.thisIndex,trials.thisRepN,trials.thisTrialN,trials.thisN,trials.thisIndex,thisRow.t,notes,key_resp_2.keys,key_resp_2.corr,letter.routineEndVal,nback.routineEndVal,type.routineEndVal,key_resp_2.rt,key_resp_2.duration,participant,session,date,expName,psychopyVersion,frameRate,expStart,
0,0,0,0,0,0,0,0,1.1521686670021154,,None,1,E,,2,,,201,pink,2023-11-18_18h27.09.652,experiment,2023.2.2,None,2023-11-18 18h27.26.148442 +0100,
0,0,0,0,1,0,1,0,3.239186624996364,,None,1,H,,2,,,201,pink,2023-11-18_18h27.09.652,experiment,2023.2.2,None,2023-11-18 18h27.26.148442 +0100,
0,0,0,0,2,0,2,0,5.334354749997146,,None,1,J,E,2,,,201,pink,2023-11-18_18h27.09.652,experiment,2023.2.2,None,2023-11-18 18h27.26.148442 +0100,
0,0,0,0,3,0,3,0,7.417828583042137,,None,1,L,H,2,,,201,pink,2023-11-18_18h27.09.652,experiment,2023.2.2,None,2023-11-18 18h27.26.148442 +0100,
0,0,0,0,4,0,4,0,9.50782216701191,,['space'],1,J,J,2,[0.5073447080212645],[None],201,pink,2023-11-18_18h27.09.652,experiment,2023.2.2,None,2023-11-18 18h27.26.148442 +0100,
0,0,0,0,5,0,5,0,11.601894667022862,,None,1,D,L,2,,,201,pink,2023-11-18_18h27.09.652,experiment,2023.2.2,None,2023-11-18 18h27.26.148442 +0100,
0,0,0,0,6,0,6,0,13.689541125029791,,None,1,G,J,2,,,201,pink,2023-11-18_18h27.09.652,experiment,2023.2.2,None,2023-11-18 18h27.26.148442 +0100,
0,0,0,0,7,0,7,0,15.774274791998323,,['space'],1,D,D,2,[1.2097810420091264],[None],201,pink,2023-11-18_18h27.09.652,experiment,2023.2.2,None,2023-11-18 18h27.26.148442 +0100,
0,0,0,0,8,0,8,0,17.870725458022207,,['space'],1,G,G,2,[0.8181113339960575],[None],201,pink,2023-11-18_18h27.09.652,experiment,2023.2.2,None,2023-11-18 18h27.26.148442 +0100,
0,0,0,0,9,0,9,0,19.953732374997344,,['space'],1,D,D,2,[0.46529658301733434],[None],201,pink,2023-11-18_18h27.09.652,experiment,2023.2.2,None,2023-11-18 18h27.26.148442 +0100,
0,0,0,0,10,0,10,0,22.046647042036057,,None,1,J,G,2,,,201,pink,2023-11-18_18h27.09.652,experiment,2023.2.2,None,2023-11-18 18h27.26.148442 +0100,
0,0,0,0,11,0,11,0,24.13006699999096,,['space'],1,D,D,2,[0.6447789579979144],[None],201,pink,2023-11-18_18h27.09.652,experiment,2023.2.2,None,2023-11-18 18h27.26.148442 +0100,
0,0,0,0,,,,,,,,,,,,,,201,pink,2023-11-18_18h27.09.652,experiment,2023.2.2,None,2023-11-18 18h27.26.148442 +0100,
1,0,1,0,0,0,0,0,26.842363042000216,,None,1,F,,1,,,201,pink,2023-11-18_18h27.09.652,experiment,2023.2.2,None,2023-11-18 18h27.26.148442 +0100,
1,0,1,0,1,0,1,0,28.922658167022746,,['space'],1,F,F,1,[0.6068839159561321],[None],201,pink,2023-11-18_18h27.09.652,experiment,2023.2.2,None,2023-11-18 18h27.26.148442 +0100,
1,0,1,0,2,0,2,0,31.01682775001973,,None,1,J,F,1,,,201,pink,2023-11-18_18h27.09.652,experiment,2023.2.2,None,2023-11-18 18h27.26.148442 +0100,
1,0,1,0,3,0,3,0,33.10274466703413,,['space'],1,J,J,1,[0.4884277500095777],[None],201,pink,2023-11-18_18h27.09.652,experiment,2023.2.2,None,2023-11-18 18h27.26.148442 +0100,
1,0,1,0,4,0,4,0,35.18974762503058,,None,1,Y,J,1,,,201,pink,2023-11-18_18h27.09.652,experiment,2023.2.2,None,2023-11-18 18h27.26.148442 +0100,
1,0,1,0,5,0,5,0,37.280833333032206,,None,1,W,Y,1,,,201,pink,2023-11-18_18h27.09.652,experiment,2023.2.2,None,2023-11-18 18h27.26.148442 +0100,
1,0,1,0,6,0,6,0,39.36996400001226,,None,1,G,W,1,,,201,pink,2023-11-18_18h27.09.652,experiment,2023.2.2,None,2023-11-18 18h27.26.148442 +0100,
1,0,1,0,7,0,7,0,41.46424141700845,,None,1,B,G,1,,,201,pink,2023-11-18_18h27.09.652,experiment,2023.2.2,None,2023-11-18 18h27.26.148442 +0100,
1,0,1,0,8,0,8,0,43.554989958007354,,None,1,F,B,1,,,201,pink,2023-11-18_18h27.09.652,experiment,2023.2.2,None,2023-11-18 18h27.26.148442 +0100,
1,0,1,0,9,0,9,0,45.635299667017534,,None,1,U,F,1,,,201,pink,2023-11-18_18h27.09.652,experiment,2023.2.2,None,2023-11-18 18h27.26.148442 +0100,
1,0,1,0,10,0,10,0,47.71906912501436,,None,1,T,U,1,,,201,pink,2023-11-18_18h27.09.652,experiment,2023.2.2,None,2023-11-18 18h27.26.148442 +0100,
1,0,1,0,11,0,11,0,49.809542958042584,,['space'],1,T,T,1,[1.0260853330255486],[None],201,pink,2023-11-18_18h27.09.652,experiment,2023.2.2,None,2023-11-18 18h27.26.148442 +0100,
1,0,1,0,,,,,,,,,,,,,,201,pink,2023-11-18_18h27.09.652,experiment,2023.2.2,None,2023-11-18 18h27.26.148442 +0100,
2,0,2,0,0,0,0,0,53.16010716703022,,None,1,H,,2,,,201,pink,2023-11-18_18h27.09.652,experiment,2023.2.2,None,2023-11-18 18h27.26.148442 +0100,
2,0,2,0,1,0,1,0,55.24705058301333,,None,1,V,,2,,,201,pink,2023-11-18_18h27.09.652,experiment,2023.2.2,None,2023-11-18 18h27.26.148442 +0100,
2,0,2,0,2,0,2,0,57.328308875032235,,None,1,J,H,2,,,201,pink,2023-11-18_18h27.09.652,experiment,2023.2.2,None,2023-11-18 18h27.26.148442 +0100,
2,0,2,0,3,0,3,0,59.4115867500077,,None,1,L,V,2,,,201,pink,2023-11-18_18h27.09.652,experiment,2023.2.2,None,2023-11-18 18h27.26.148442 +0100,
2,0,2,0,4,0,4,0,61.50360133301001,,['space'],1,J,J,2,[0.8713511669775471],[None],201,pink,2023-11-18_18h27.09.652,experiment,2023.2.2,None,2023-11-18 18h27.26.148442 +0100,
2,0,2,0,5,0,5,0,63.58881000004476,,None,1,Z,L,2,,,201,pink,2023-11-18_18h27.09.652,experiment,2023.2.2,None,2023-11-18 18h27.26.148442 +0100,
2,0,2,0,6,0,6,0,65.67022066703066,,None,0,J,J,2,,,201,pink,2023-11-18_18h27.09.652,experiment,2023.2.2,None,2023-11-18 18h27.26.148442 +0100,
2,0,2,0,7,0,7,0,67.75777479202952,,['space'],1,Z,Z,2,[0.592250875022728],[None],201,pink,2023-11-18_18h27.09.652,experiment,2023.2.2,None,2023-11-18 18h27.26.148442 +0100,
2,0,2,0,8,0,8,0,69.84352479199879,,None,1,R,J,2,,,201,pink,2023-11-18_18h27.09.652,experiment,2023.2.2,None,2023-11-18 18h27.26.148442 +0100,
2,0,2,0,9,0,9,0,71.93528412503656,,None,1,X,Z,2,,,201,pink,2023-11-18_18h27.09.652,experiment,2023.2.2,None,2023-11-18 18h27.26.148442 +0100,
2,0,2,0,10,0,10,0,74.02849512500688,,['space'],1,R,R,2,[0.5966978750075214],[None],201,pink,2023-11-18_18h27.09.652,experiment,2023.2.2,None,2023-11-18 18h27.26.148442 +0100,
2,0,2,0,11,0,11,0,76.1206289170077,,['space'],1,X,X,2,[0.5777721659978852],[None],201,pink,2023-11-18_18h27.09.652,experiment,2023.2.2,None,2023-11-18 18h27.26.148442 +0100,
2,0,2,0,,,,,,,,,,,,,,201,pink,2023-11-18_18h27.09.652,experiment,2023.2.2,None,2023-11-18 18h27.26.148442 +0100,
3,0,3,0,0,0,0,0,78.69776754203485,,None,1,R,,1,,,201,pink,2023-11-18_18h27.09.652,experiment,2023.2.2,None,2023-11-18 18h27.26.148442 +0100,
3,0,3,0,1,0,1,0,80.7847746250336,,['space'],1,R,R,1,[0.4642127089900896],[None],201,pink,2023-11-18_18h27.09.652,experiment,2023.2.2,None,2023-11-18 18h27.26.148442 +0100,
3,0,3,0,2,0,2,0,82.8744834579993,,None,1,U,R,1,,,201,pink,2023-11-18_18h27.09.652,experiment,2023.2.2,None,2023-11-18 18h27.26.148442 +0100,
3,0,3,0,3,0,3,0,84.96760475001065,,['space'],1,U,U,1,[0.5507383750518784],[None],201,pink,2023-11-18_18h27.09.652,experiment,2023.2.2,None,2023-11-18 18h27.26.148442 +0100,
3,0,3,0,4,0,4,0,87.04554483300308,,None,1,D,U,1,,,201,pink,2023-11-18_18h27.09.652,experiment,2023.2.2,None,2023-11-18 18h27.26.148442 +0100,
3,0,3,0,5,0,5,0,89.13617541699205,,None,1,F,D,1,,,201,pink,2023-11-18_18h27.09.652,experiment,2023.2.2,None,2023-11-18 18h27.26.148442 +0100,
3,0,3,0,6,0,6,0,91.21824108302826,,['space'],1,F,F,1,[0.6914078749832697],[None],201,pink,2023-11-18_18h27.09.652,experiment,2023.2.2,None,2023-11-18 18h27.26.148442 +0100,
3,0,3,0,7,0,7,0,93.31204079202143,,None,1,H,F,1,,,201,pink,2023-11-18_18h27.09.652,experiment,2023.2.2,None,2023-11-18 18h27.26.148442 +0100,
3,0,3,0,8,0,8,0,95.4055493749911,,None,1,I,H,1,,,201,pink,2023-11-18_18h27.09.652,experiment,2023.2.2,None,2023-11-18 18h27.26.148442 +0100,
3,0,3,0,9,0,9,0,97.48503637500107,,None,0,I,I,1,,,201,pink,2023-11-18_18h27.09.652,experiment,2023.2.2,None,2023-11-18 18h27.26.148442 +0100,
3,0,3,0,10,0,10,0,99.57684245804558,,['space'],1,I,I,1,[0.6890783340204507],[None],201,pink,2023-11-18_18h27.09.652,experiment,2023.2.2,None,2023-11-18 18h27.26.148442 +0100,
3,0,3,0,11,0,11,0,101.65646395803196,,None,1,Q,I,1,,,201,pink,2023-11-18_18h27.09.652,experiment,2023.2.2,None,2023-11-18 18h27.26.148442 +0100,
3,0,3,0,,,,,,,,,,,,,,201,pink,2023-11-18_18h27.09.652,experiment,2023.2.2,None,2023-11-18 18h27.26.148442 +0100,
4,0,4,0,0,0,0,0,104.55302733299322,,None,1,X,,1,,,201,pink,2023-11-18_18h27.09.652,experiment,2023.2.2,None,2023-11-18 18h27.26.148442 +0100,
4,0,4,0,1,0,1,0,106.64158087503165,,None,1,V,X,1,,,201,pink,2023-11-18_18h27.09.652,experiment,2023.2.2,None,2023-11-18 18h27.26.148442 +0100,
4,0,4,0,2,0,2,0,108.73499062500196,,['space'],1,V,V,1,[0.6812633330118842],[None],201,pink,2023-11-18_18h27.09.652,experiment,2023.2.2,None,2023-11-18 18h27.26.148442 +0100,
4,0,4,0,3,0,3,0,110.82106429204578,,None,1,W,V,1,,,201,pink,2023-11-18_18h27.09.652,experiment,2023.2.2,None,2023-11-18 18h27.26.148442 +0100,
4,0,4,0,4,0,4,0,112.90714591700817,,None,0,W,W,1,,,201,pink,2023-11-18_18h27.09.652,experiment,2023.2.2,None,2023-11-18 18h27.26.148442 +0100,
4,0,4,0,5,0,5,0,114.99620904203039,,None,1,D,W,1,,,201,pink,2023-11-18_18h27.09.652,experiment,2023.2.2,None,2023-11-18 18h27.26.148442 +0100,
4,0,4,0,6,0,6,0,117.08534925000276,,['space'],1,D,D,1,[0.4969802499981597],[None],201,pink,2023-11-18_18h27.09.652,experiment,2023.2.2,None,2023-11-18 18h27.26.148442 +0100,
4,0,4,0,7,0,7,0,119.18301670800429,,None,1,I,D,1,,,201,pink,2023-11-18_18h27.09.652,experiment,2023.2.2,None,2023-11-18 18h27.26.148442 +0100,
4,0,4,0,8,0,8,0,121.27248983300524,,None,1,C,I,1,,,201,pink,2023-11-18_18h27.09.652,experiment,2023.2.2,None,2023-11-18 18h27.26.148442 +0100,
4,0,4,0,9,0,9,0,123.36394554201979,,['space'],1,C,C,1,[0.5439596659853123],[None],201,pink,2023-11-18_18h27.09.652,experiment,2023.2.2,None,2023-11-18 18h27.26.148442 +0100,
4,0,4,0,10,0,10,0,125.4481197920395,,['space'],1,C,C,1,[0.46342116699088365],[None],201,pink,2023-11-18_18h27.09.652,experiment,2023.2.2,None,2023-11-18 18h27.26.148442 +0100,
4,0,4,0,11,0,11,0,127.53662437503226,,None,1,O,C,1,,,201,pink,2023-11-18_18h27.09.652,experiment,2023.2.2,None,2023-11-18 18h27.26.148442 +0100,
4,0,4,0,,,,,,,,,,,,,,201,pink,2023-11-18_18h27.09.652,experiment,2023.2.2,None,2023-11-18 18h27.26.148442 +0100,
5,0,5,0,0,0,0,0,132.25269495800603,,None,1,L,,2,,,201,pink,2023-11-18_18h27.09.652,experiment,2023.2.2,None,2023-11-18 18h27.26.148442 +0100,
5,0,5,0,1,0,1,0,134.3375730830012,,None,1,Q,,2,,,201,pink,2023-11-18_18h27.09.652,experiment,2023.2.2,None,2023-11-18 18h27.26.148442 +0100,
5,0,5,0,2,0,2,0,136.428728583036,,None,1,I,L,2,,,201,pink,2023-11-18_18h27.09.652,experiment,2023.2.2,None,2023-11-18 18h27.26.148442 +0100,
5,0,5,0,3,0,3,0,138.5153376670205,,None,1,T,Q,2,,,201,pink,2023-11-18_18h27.09.652,experiment,2023.2.2,None,2023-11-18 18h27.26.148442 +0100,
5,0,5,0,4,0,4,0,140.60735700000077,,['space'],1,I,I,2,[0.861454917001538],[None],201,pink,2023-11-18_18h27.09.652,experiment,2023.2.2,None,2023-11-18 18h27.26.148442 +0100,
5,0,5,0,5,0,5,0,142.69370108301518,,None,1,A,T,2,,,201,pink,2023-11-18_18h27.09.652,experiment,2023.2.2,None,2023-11-18 18h27.26.148442 +0100,
5,0,5,0,6,0,6,0,144.77801429200917,,None,1,P,I,2,,,201,pink,2023-11-18_18h27.09.652,experiment,2023.2.2,None,2023-11-18 18h27.26.148442 +0100,
5,0,5,0,7,0,7,0,146.86656933301128,,['space'],1,A,A,2,[0.5474648749805056],[None],201,pink,2023-11-18_18h27.09.652,experiment,2023.2.2,None,2023-11-18 18h27.26.148442 +0100,
5,0,5,0,8,0,8,0,148.96044937503757,,None,1,A,P,2,,,201,pink,2023-11-18_18h27.09.652,experiment,2023.2.2,None,2023-11-18 18h27.26.148442 +0100,
5,0,5,0,9,0,9,0,151.04465258301934,,['space'],1,A,A,2,[0.3942810830194503],[None],201,pink,2023-11-18_18h27.09.652,experiment,2023.2.2,None,2023-11-18 18h27.26.148442 +0100,
5,0,5,0,10,0,10,0,153.13571762503125,,['space'],1,A,A,2,[0.4887857499998063],[None],201,pink,2023-11-18_18h27.09.652,experiment,2023.2.2,None,2023-11-18 18h27.26.148442 +0100,
5,0,5,0,11,0,11,0,155.23904116702033,,None,1,R,A,2,,,201,pink,2023-11-18_18h27.09.652,experiment,2023.2.2,None,2023-11-18 18h27.26.148442 +0100,
5,0,5,0,,,,,,,,,,,,,,201,pink,2023-11-18_18h27.09.652,experiment,2023.2.2,None,2023-11-18 18h27.26.148442 +0100,
6,0,6,0,0,0,0,0,158.2071628330159,,None,1,A,,2,,,201,pink,2023-11-18_18h27.09.652,experiment,2023.2.2,None,2023-11-18 18h27.26.148442 +0100,
6,0,6,0,1,0,1,0,160.2869988750317,,None,1,O,,2,,,201,pink,2023-11-18_18h27.09.652,experiment,2023.2.2,None,2023-11-18 18h27.26.148442 +0100,
6,0,6,0,2,0,2,0,162.38289454201004,,['space'],1,A,A,2,[0.7111081659677438],[None],201,pink,2023-11-18_18h27.09.652,experiment,2023.2.2,None,2023-11-18 18h27.26.148442 +0100,
6,0,6,0,3,0,3,0,164.47481750004226,,None,1,U,O,2,,,201,pink,2023-11-18_18h27.09.652,experiment,2023.2.2,None,2023-11-18 18h27.26.148442 +0100,
6,0,6,0,4,0,4,0,166.57057304203045,,None,1,B,A,2,,,201,pink,2023-11-18_18h27.09.652,experiment,2023.2.2,None,2023-11-18 18h27.26.148442 +0100,
6,0,6,0,5,0,5,0,168.6635640829918,,['space'],1,U,U,2,[0.4593024170026183],[None],201,pink,2023-11-18_18h27.09.652,experiment,2023.2.2,None,2023-11-18 18h27.26.148442 +0100,
6,0,6,0,6,0,6,0,170.7471748330281,,['space'],1,B,B,2,[0.7528542499640025],[None],201,pink,2023-11-18_18h27.09.652,experiment,2023.2.2,None,2023-11-18 18h27.26.148442 +0100,
6,0,6,0,7,0,7,0,172.83110341703286,,None,1,M,U,2,,,201,pink,2023-11-18_18h27.09.652,experiment,2023.2.2,None,2023-11-18 18h27.26.148442 +0100,
6,0,6,0,8,0,8,0,174.91228483302984,,None,1,X,B,2,,,201,pink,2023-11-18_18h27.09.652,experiment,2023.2.2,None,2023-11-18 18h27.26.148442 +0100,
6,0,6,0,9,0,9,0,177.00778966699727,,None,1,A,M,2,,,201,pink,2023-11-18_18h27.09.652,experiment,2023.2.2,None,2023-11-18 18h27.26.148442 +0100,
6,0,6,0,10,0,10,0,179.1004606669885,,['space'],1,X,X,2,[1.019174541987013],[None],201,pink,2023-11-18_18h27.09.652,experiment,2023.2.2,None,2023-11-18 18h27.26.148442 +0100,
6,0,6,0,11,0,11,0,181.1830012500286,,None,1,C,A,2,,,201,pink,2023-11-18_18h27.09.652,experiment,2023.2.2,None,2023-11-18 18h27.26.148442 +0100,
6,0,6,0,,,,,,,,,,,,,,201,pink,2023-11-18_18h27.09.652,experiment,2023.2.2,None,2023-11-18 18h27.26.148442 +0100,
7,0,7,0,0,0,0,0,183.96880025003338,,None,1,X,,1,,,201,pink,2023-11-18_18h27.09.652,experiment,2023.2.2,None,2023-11-18 18h27.26.148442 +0100,
7,0,7,0,1,0,1,0,186.05163995799376,,['space'],1,X,X,1,[0.5182960420497693],[None],201,pink,2023-11-18_18h27.09.652,experiment,2023.2.2,None,2023-11-18 18h27.26.148442 +0100,
7,0,7,0,2,0,2,0,188.13754975004122,,None,1,B,X,1,,,201,pink,2023-11-18_18h27.09.652,experiment,2023.2.2,None,2023-11-18 18h27.26.148442 +0100,
7,0,7,0,3,0,3,0,190.22859504201915,,None,1,M,B,1,,,201,pink,2023-11-18_18h27.09.652,experiment,2023.2.2,None,2023-11-18 18h27.26.148442 +0100,
7,0,7,0,4,0,4,0,192.3144117500051,,None,0,M,M,1,,,201,pink,2023-11-18_18h27.09.652,experiment,2023.2.2,None,2023-11-18 18h27.26.148442 +0100,
7,0,7,0,5,0,5,0,194.40966549998848,,['space'],1,M,M,1,[0.6462872090050951],[None],201,pink,2023-11-18_18h27.09.652,experiment,2023.2.2,None,2023-11-18 18h27.26.148442 +0100,
7,0,7,0,6,0,6,0,196.48641033301828,,['space'],1,M,M,1,[0.4072613750468008],[None],201,pink,2023-11-18_18h27.09.652,experiment,2023.2.2,None,2023-11-18 18h27.26.148442 +0100,
7,0,7,0,7,0,7,0,198.5724058750202,,['space'],1,M,M,1,[0.42202595801791176],[None],201,pink,2023-11-18_18h27.09.652,experiment,2023.2.2,None,2023-11-18 18h27.26.148442 +0100,
7,0,7,0,8,0,8,0,200.65627116704127,,['space'],1,M,M,1,[0.35413537500426173],[None],201,pink,2023-11-18_18h27.09.652,experiment,2023.2.2,None,2023-11-18 18h27.26.148442 +0100,
7,0,7,0,9,0,9,0,202.74559574999148,,None,1,B,M,1,,,201,pink,2023-11-18_18h27.09.652,experiment,2023.2.2,None,2023-11-18 18h27.26.148442 +0100,
7,0,7,0,10,0,10,0,204.83859808300622,,['space'],1,B,B,1,[0.7257289999979548],[None],201,pink,2023-11-18_18h27.09.652,experiment,2023.2.2,None,2023-11-18 18h27.26.148442 +0100,
7,0,7,0,11,0,11,0,206.9209429580369,,None,1,V,B,1,,,201,pink,2023-11-18_18h27.09.652,experiment,2023.2.2,None,2023-11-18 18h27.26.148442 +0100,
7,0,7,0,,,,,,,,,,,,,,201,pink,2023-11-18_18h27.09.652,experiment,2023.2.2,None,2023-11-18 18h27.26.148442 +0100,
