trials_3.thisRepN,trials_3.thisTrialN,trials_3.thisN,trials_3.thisIndex,trials.thisRepN,trials.thisTrialN,trials.thisN,trials.thisIndex,thisRow.t,notes,key_resp_2.keys,key_resp_2.corr,letter.routineEndVal,nback.routineEndVal,type.routineEndVal,key_resp_2.rt,key_resp_2.duration,participant,session,date,expName,psychopyVersion,frameRate,expStart,
0,0,0,0,0,0,0,0,3.9419866660027765,,None,1,U,,1,,,202,brown,2023-11-19_18h25.09.124,experiment,2023.2.2,None,2023-11-19 18h25.16.742901 +0100,
0,0,0,0,1,0,1,0,6.029563957999926,,['space'],1,U,U,1,[0.4246775420033373],[None],202,brown,2023-11-19_18h25.09.124,experiment,2023.2.2,None,2023-11-19 18h25.16.742901 +0100,
0,0,0,0,2,0,2,0,8.109123791044112,,None,1,Z,U,1,,,202,brown,2023-11-19_18h25.09.124,experiment,2023.2.2,None,2023-11-19 18h25.16.742901 +0100,
0,0,0,0,3,0,3,0,10.20323758298764,,['space'],1,Z,Z,1,[0.5894757499918342],[None],202,brown,2023-11-19_18h25.09.124,experiment,2023.2.2,None,2023-11-19 18h25.16.742901 +0100,
0,0,0,0,4,0,4,0,12.286046166031156,,None,1,L,Z,1,,,202,brown,2023-11-19_18h25.09.124,experiment,2023.2.2,None,2023-11-19 18h25.16.742901 +0100,
0,0,0,0,5,0,5,0,14.36999974999344,,['space'],1,L,L,1,[0.43930299999192357],[None],202,brown,2023-11-19_18h25.09.124,experiment,2023.2.2,None,2023-11-19 18h25.16.742901 +0100,
0,0,0,0,6,0,6,0,16.456875541014597,,None,1,Q,L,1,,,202,brown,2023-11-19_18h25.09.124,experiment,2023.2.2,None,2023-11-19 18h25.16.742901 +0100,
0,0,0,0,7,0,7,0,18.550012708001304,,None,1,B,Q,1,,,202,brown,2023-11-19_18h25.09.124,experiment,2023.2.2,None,2023-11-19 18h25.16.742901 +0100,
0,0,0,0,8,0,8,0,20.657582374988124,,None,1,V,B,1,,,202,brown,2023-11-19_18h25.09.124,experiment,2023.2.2,None,2023-11-19 18h25.16.742901 +0100,
0,0,0,0,9,0,9,0,22.723288999986835,,None,1,Z,V,1,,,202,brown,2023-11-19_18h25.09.124,experiment,2023.2.2,None,2023-11-19 18h25.16.742901 +0100,
0,0,0,0,10,0,10,0,24.80822825001087,,None,1,M,Z,1,,,202,brown,2023-11-19_18h25.09.124,experiment,2023.2.2,None,2023-11-19 18h25.16.742901 +0100,
0,0,0,0,11,0,11,0,26.89279054099461,,None,1,K,M,1,,,202,brown,2023-11-19_18h25.09.124,experiment,2023.2.2,None,2023-11-19 18h25.16.742901 +0100,
0,0,0,0,,,,,,,,,,,,,,202,brown,2023-11-19_18h25.09.124,experiment,2023.2.2,None,2023-11-19 18h25.16.742901 +0100,
1,0,1,0,0,0,0,0,31.110998290998396,,None,1,N,,1,,,202,brown,2023-11-19_18h25.09.124,experiment,2023.2.2,None,2023-11-19 18h25.16.742901 +0100,
1,0,1,0,1,0,1,0,33.20327350002481,,['space'],1,N,N,1,[0.6425889580277726],[None],202,brown,2023-11-19_18h25.09.124,experiment,2023.2.2,None,2023-11-19 18h25.16.742901 +0100,
1,0,1,0,2,0,2,0,35.28802174999146,,None,1,E,N,1,,,202,brown,2023-11-19_18h25.09.124,experiment,2023.2.2,None,2023-11-19 18h25.16.742901 +0100,
1,0,1,0,3,0,3,0,37.37629858299624,,None,1,S,E,1,,,202,brown,2023-11-19_18h25.09.124,experiment,2023.2.2,None,2023-11-19 18h25.16.742901 +0100,
1,0,1,0,4,0,4,0,39.459655457991175,,None,1,W,S,1,,,202,brown,2023-11-19_18h25.09.124,experiment,2023.2.2,None,2023-11-19 18h25.16.742901 +0100,
1,0,1,0,5,0,5,0,41.5451168330037,,['space'],1,W,W,1,[0.451929958013352],[None],202,brown,2023-11-19_18h25.09.124,experiment,2023.2.2,None,2023-11-19 18h25.16.742901 +0100,
1,0,1,0,6,0,6,0,43.63325308304047,,None,1,O,W,1,,,202,brown,2023-11-19_18h25.09.124,experiment,2023.2.2,None,2023-11-19 18h25.16.742901 +0100,
1,0,1,0,7,0,7,0,45.72413158300333,,None,1,L,O,1,,,202,brown,2023-11-19_18h25.09.124,experiment,2023.2.2,None,2023-11-19 18h25.16.742901 +0100,
1,0,1,0,8,0,8,0,47.80726249999134,,['space'],1,L,L,1,[0.8271801249939017],[None],202,brown,2023-11-19_18h25.09.124,experiment,2023.2.2,None,2023-11-19 18h25.16.742901 +0100,
1,0,1,0,9,0,9,0,49.887132166011725,,['space'],1,L,L,1,[0.9370190830086358],[None],202,brown,2023-11-19_18h25.09.124,experiment,2023.2.2,None,2023-11-19 18h25.16.742901 +0100,
1,0,1,0,10,0,10,0,51.978291125036776,,['space'],1,L,L,1,[0.6975691249826923],[None],202,brown,2023-11-19_18h25.09.124,experiment,2023.2.2,None,2023-11-19 18h25.16.742901 +0100,
1,0,1,0,11,0,11,0,54.07091837498592,,None,1,C,L,1,,,202,brown,2023-11-19_18h25.09.124,experiment,2023.2.2,None,2023-11-19 18h25.16.742901 +0100,
1,0,1,0,,,,,,,,,,,,,,202,brown,2023-11-19_18h25.09.124,experiment,2023.2.2,None,2023-11-19 18h25.16.742901 +0100,
2,0,2,0,0,0,0,0,56.91740641603246,,None,1,B,,1,,,202,brown,2023-11-19_18h25.09.124,experiment,2023.2.2,None,2023-11-19 18h25.16.742901 +0100,
2,0,2,0,1,0,1,0,59.003298875002656,,None,1,T,B,1,,,202,brown,2023-11-19_18h25.09.124,experiment,2023.2.2,None,2023-11-19 18h25.16.742901 +0100,
2,0,2,0,2,0,2,0,61.084007500030566,,['space'],1,T,T,1,[0.94530391698936],[None],202,brown,2023-11-19_18h25.09.124,experiment,2023.2.2,None,2023-11-19 18h25.16.742901 +0100,
2,0,2,0,3,0,3,0,63.17456995800603,,['space'],1,T,T,1,[0.5467360410257243],[None],202,brown,2023-11-19_18h25.09.124,experiment,2023.2.2,None,2023-11-19 18h25.16.742901 +0100,
2,0,2,0,4,0,4,0,65.26847858302062,,None,1,Y,T,1,,,202,brown,2023-11-19_18h25.09.124,experiment,2023.2.2,None,2023-11-19 18h25.16.742901 +0100,
2,0,2,0,5,0,5,0,67.36043870804133,,None,1,V,Y,1,,,202,brown,2023-11-19_18h25.09.124,experiment,2023.2.2,None,2023-11-19 18h25.16.742901 +0100,
2,0,2,0,6,0,6,0,69.44372924999334,,None,1,L,V,1,,,202,brown,2023-11-19_18h25.09.124,experiment,2023.2.2,None,2023-11-19 18h25.16.742901 +0100,
2,0,2,0,7,0,7,0,71.53069033299107,,None,1,H,L,1,,,202,brown,2023-11-19_18h25.09.124,experiment,2023.2.2,None,2023-11-19 18h25.16.742901 +0100,
2,0,2,0,8,0,8,0,73.61893570801476,,None,1,B,H,1,,,202,brown,2023-11-19_18h25.09.124,experiment,2023.2.2,None,2023-11-19 18h25.16.742901 +0100,
2,0,2,0,9,0,9,0,75.71238895802526,,None,1,J,B,1,,,202,brown,2023-11-19_18h25.09.124,experiment,2023.2.2,None,2023-11-19 18h25.16.742901 +0100,
2,0,2,0,10,0,10,0,77.80319666600553,,['space'],1,J,J,1,[0.7855338749941438],[None],202,brown,2023-11-19_18h25.09.124,experiment,2023.2.2,None,2023-11-19 18h25.16.742901 +0100,
2,0,2,0,11,0,11,0,79.88250170799438,,['space'],1,J,J,1,[0.4681551660178229],[None],202,brown,2023-11-19_18h25.09.124,experiment,2023.2.2,None,2023-11-19 18h25.16.742901 +0100,
2,0,2,0,,,,,,,,,,,,,,202,brown,2023-11-19_18h25.09.124,experiment,2023.2.2,None,2023-11-19 18h25.16.742901 +0100,
3,0,3,0,0,0,0,0,82.95229099999415,,None,1,J,,2,,,202,brown,2023-11-19_18h25.09.124,experiment,2023.2.2,None,2023-11-19 18h25.16.742901 +0100,
3,0,3,0,1,0,1,0,85.03535708301933,,None,1,E,,2,,,202,brown,2023-11-19_18h25.09.124,experiment,2023.2.2,None,2023-11-19 18h25.16.742901 +0100,
3,0,3,0,2,0,2,0,87.11888566601556,,['space'],1,J,J,2,[0.43910304200835526],[None],202,brown,2023-11-19_18h25.09.124,experiment,2023.2.2,None,2023-11-19 18h25.16.742901 +0100,
3,0,3,0,3,0,3,0,89.21168766601477,,None,1,C,E,2,,,202,brown,2023-11-19_18h25.09.124,experiment,2023.2.2,None,2023-11-19 18h25.16.742901 +0100,
3,0,3,0,4,0,4,0,91.29309941601241,,None,1,R,J,2,,,202,brown,2023-11-19_18h25.09.124,experiment,2023.2.2,None,2023-11-19 18h25.16.742901 +0100,
3,0,3,0,5,0,5,0,93.39093983301427,,None,1,L,C,2,,,202,brown,2023-11-19_18h25.09.124,experiment,2023.2.2,None,2023-11-19 18h25.16.742901 +0100,
3,0,3,0,6,0,6,0,95.47415466600796,,['space'],1,R,R,2,[0.6883666660287417],[None],202,brown,2023-11-19_18h25.09.124,experiment,2023.2.2,None,2023-11-19 18h25.16.742901 +0100,
3,0,3,0,7,0,7,0,97.55628941603936,,['space'],1,L,L,2,[0.7380221250350587],[None],202,brown,2023-11-19_18h25.09.124,experiment,2023.2.2,None,2023-11-19 18h25.16.742901 +0100,
3,0,3,0,8,0,8,0,99.64299808302894,,None,1,D,R,2,,,202,brown,2023-11-19_18h25.09.124,experiment,2023.2.2,None,2023-11-19 18h25.16.742901 +0100,
3,0,3,0,9,0,9,0,101.73240825004177,,['space'],1,L,L,2,[0.6462834589765407],[None],202,brown,2023-11-19_18h25.09.124,experiment,2023.2.2,None,2023-11-19 18h25.16.742901 +0100,
3,0,3,0,10,0,10,0,103.81475916603813,,['space'],1,D,D,2,[0.4241726670297794],[None],202,brown,2023-11-19_18h25.09.124,experiment,2023.2.2,None,2023-11-19 18h25.16.742901 +0100,
3,0,3,0,11,0,11,0,105.90792700002203,,['space'],1,L,L,2,[0.45841979200486094],[None],202,brown,2023-11-19_18h25.09.124,experiment,2023.2.2,None,2023-11-19 18h25.16.742901 +0100,
3,0,3,0,,,,,,,,,,,,,,202,brown,2023-11-19_18h25.09.124,experiment,2023.2.2,None,2023-11-19 18h25.16.742901 +0100,
4,0,4,0,0,0,0,0,108.7920809580246,,None,1,R,,2,,,202,brown,2023-11-19_18h25.09.124,experiment,2023.2.2,None,2023-11-19 18h25.16.742901 +0100,
4,0,4,0,1,0,1,0,110.87507779098814,,None,1,F,,2,,,202,brown,2023-11-19_18h25.09.124,experiment,2023.2.2,None,2023-11-19 18h25.16.742901 +0100,
4,0,4,0,2,0,2,0,112.95886491599958,,['space'],1,R,R,2,[0.46433904202422127],[None],202,brown,2023-11-19_18h25.09.124,experiment,2023.2.2,None,2023-11-19 18h25.16.742901 +0100,
4,0,4,0,3,0,3,0,115.05020745802904,,None,1,R,F,2,,,202,brown,2023-11-19_18h25.09.124,experiment,2023.2.2,None,2023-11-19 18h25.16.742901 +0100,
4,0,4,0,4,0,4,0,117.14959725004155,,['space'],1,R,R,2,[0.4817572920001112],[None],202,brown,2023-11-19_18h25.09.124,experiment,2023.2.2,None,2023-11-19 18h25.16.742901 +0100,
4,0,4,0,5,0,5,0,119.24261320801452,,None,1,X,R,2,,,202,brown,2023-11-19_18h25.09.124,experiment,2023.2.2,None,2023-11-19 18h25.16.742901 +0100,
4,0,4,0,6,0,6,0,121.32314575003693,,None,1,H,R,2,,,202,brown,2023-11-19_18h25.09.124,experiment,2023.2.2,None,2023-11-19 18h25.16.742901 +0100,
4,0,4,0,7,0,7,0,123.40918608300854,,['space'],1,X,X,2,[0.5301152910105884],[None],202,brown,2023-11-19_18h25.09.124,experiment,2023.2.2,None,2023-11-19 18h25.16.742901 +0100,
4,0,4,0,8,0,8,0,125.50214312499156,,None,1,F,H,2,,,202,brown,2023-11-19_18h25.09.124,experiment,2023.2.2,None,2023-11-19 18h25.16.742901 +0100,
4,0,4,0,9,0,9,0,127.59499387501273,,None,1,Q,X,2,,,202,brown,2023-11-19_18h25.09.124,experiment,2023.2.2,None,2023-11-19 18h25.16.742901 +0100,
4,0,4,0,10,0,10,0,129.67826991603943,,['space'],0,Q,F,2,[0.5530551670235582],[None],202,brown,2023-11-19_18h25.09.124,experiment,2023.2.2,None,2023-11-19 18h25.16.742901 +0100,
4,0,4,0,11,0,11,0,131.75970920803957,,['space'],1,Q,Q,2,[1.162614582979586],[None],202,brown,2023-11-19_18h25.09.124,experiment,2023.2.2,None,2023-11-19 18h25.16.742901 +0100,
4,0,4,0,,,,,,,,,,,,,,202,brown,2023-11-19_18h25.09.124,experiment,2023.2.2,None,2023-11-19 18h25.16.742901 +0100,
5,0,5,0,0,0,0,0,134.72327766602393,,None,1,Q,,2,,,202,brown,2023-11-19_18h25.09.124,experiment,2023.2.2,None,2023-11-19 18h25.16.742901 +0100,
5,0,5,0,1,0,1,0,136.80655933299568,,None,1,S,,2,,,202,brown,2023-11-19_18h25.09.124,experiment,2023.2.2,None,2023-11-19 18h25.16.742901 +0100,
5,0,5,0,2,0,2,0,138.89917087502545,,['space'],1,Q,Q,2,[0.7342988339951262],[None],202,brown,2023-11-19_18h25.09.124,experiment,2023.2.2,None,2023-11-19 18h25.16.742901 +0100,
5,0,5,0,3,0,3,0,140.9821125830058,,None,1,H,S,2,,,202,brown,2023-11-19_18h25.09.124,experiment,2023.2.2,None,2023-11-19 18h25.16.742901 +0100,
5,0,5,0,4,0,4,0,143.06810229102848,,['space'],1,Q,Q,2,[1.2486879999632947],[None],202,brown,2023-11-19_18h25.09.124,experiment,2023.2.2,None,2023-11-19 18h25.16.742901 +0100,
5,0,5,0,5,0,5,0,145.15400270803366,,None,1,P,H,2,,,202,brown,2023-11-19_18h25.09.124,experiment,2023.2.2,None,2023-11-19 18h25.16.742901 +0100,
5,0,5,0,6,0,6,0,147.23988583299797,,None,1,W,Q,2,,,202,brown,2023-11-19_18h25.09.124,experiment,2023.2.2,None,2023-11-19 18h25.16.742901 +0100,
5,0,5,0,7,0,7,0,149.32409045798704,,None,0,P,P,2,,,202,brown,2023-11-19_18h25.09.124,experiment,2023.2.2,None,2023-11-19 18h25.16.742901 +0100,
5,0,5,0,8,0,8,0,151.41053395799827,,None,1,C,W,2,,,202,brown,2023-11-19_18h25.09.124,experiment,2023.2.2,None,2023-11-19 18h25.16.742901 +0100,
5,0,5,0,9,0,9,0,153.51181350002298,,None,1,F,P,2,,,202,brown,2023-11-19_18h25.09.124,experiment,2023.2.2,None,2023-11-19 18h25.16.742901 +0100,
5,0,5,0,10,0,10,0,155.5825381660252,,None,1,A,C,2,,,202,brown,2023-11-19_18h25.09.124,experiment,2023.2.2,None,2023-11-19 18h25.16.742901 +0100,
5,0,5,0,11,0,11,0,157.66845858300803,,['space'],1,F,F,2,[0.48606729198945686],[None],202,brown,2023-11-19_18h25.09.124,experiment,2023.2.2,None,2023-11-19 18h25.16.742901 +0100,
5,0,5,0,,,,,,,,,,,,,,202,brown,2023-11-19_18h25.09.124,experiment,2023.2.2,None,2023-11-19 18h25.16.742901 +0100,
6,0,6,0,0,0,0,0,160.55440670798998,,None,1,A,,1,,,202,brown,2023-11-19_18h25.09.124,experiment,2023.2.2,None,2023-11-19 18h25.16.742901 +0100,
6,0,6,0,1,0,1,0,162.64499454101315,,['space'],1,A,A,1,[0.41444874997250736],[None],202,brown,2023-11-19_18h25.09.124,experiment,2023.2.2,None,2023-11-19 18h25.16.742901 +0100,
6,0,6,0,2,0,2,0,164.72772487503244,,None,1,J,A,1,,,202,brown,2023-11-19_18h25.09.124,experiment,2023.2.2,None,2023-11-19 18h25.16.742901 +0100,
6,0,6,0,3,0,3,0,166.82044149999274,,['space'],1,J,J,1,[0.459967415954452],[None],202,brown,2023-11-19_18h25.09.124,experiment,2023.2.2,None,2023-11-19 18h25.16.742901 +0100,
6,0,6,0,4,0,4,0,168.9104655830306,,None,1,A,J,1,,,202,brown,2023-11-19_18h25.09.124,experiment,2023.2.2,None,2023-11-19 18h25.16.742901 +0100,
6,0,6,0,5,0,5,0,171.00782733300002,,['space'],1,A,A,1,[0.8237670829985291],[None],202,brown,2023-11-19_18h25.09.124,experiment,2023.2.2,None,2023-11-19 18h25.16.742901 +0100,
6,0,6,0,6,0,6,0,173.0980632909923,,None,1,J,A,1,,,202,brown,2023-11-19_18h25.09.124,experiment,2023.2.2,None,2023-11-19 18h25.16.742901 +0100,
6,0,6,0,7,0,7,0,175.18397812498733,,None,1,G,J,1,,,202,brown,2023-11-19_18h25.09.124,experiment,2023.2.2,None,2023-11-19 18h25.16.742901 +0100,
6,0,6,0,8,0,8,0,177.2674076250405,,['space'],1,G,G,1,[0.6801772919716313],[None],202,brown,2023-11-19_18h25.09.124,experiment,2023.2.2,None,2023-11-19 18h25.16.742901 +0100,
6,0,6,0,9,0,9,0,179.35527591599384,,['space'],1,G,G,1,[0.8030566660454497],[None],202,brown,2023-11-19_18h25.09.124,experiment,2023.2.2,None,2023-11-19 18h25.16.742901 +0100,
6,0,6,0,10,0,10,0,181.44565408304334,,['space'],1,G,G,1,[0.5444658750202507],[None],202,brown,2023-11-19_18h25.09.124,experiment,2023.2.2,None,2023-11-19 18h25.16.742901 +0100,
6,0,6,0,11,0,11,0,183.536790165992,,None,1,D,G,1,,,202,brown,2023-11-19_18h25.09.124,experiment,2023.2.2,None,2023-11-19 18h25.16.742901 +0100,
6,0,6,0,,,,,,,,,,,,,,202,brown,2023-11-19_18h25.09.124,experiment,2023.2.2,None,2023-11-19 18h25.16.742901 +0100,
7,0,7,0,0,0,0,0,186.3152210410335,,None,1,I,,2,,,202,brown,2023-11-19_18h25.09.124,experiment,2023.2.2,None,2023-11-19 18h25.16.742901 +0100,
7,0,7,0,1,0,1,0,188.40344662498683,,None,1,C,,2,,,202,brown,2023-11-19_18h25.09.124,experiment,2023.2.2,None,2023-11-19 18h25.16.742901 +0100,
7,0,7,0,2,0,2,0,190.50343700003577,,['space'],1,I,I,2,[0.44981929200002924],[None],202,brown,2023-11-19_18h25.09.124,experiment,2023.2.2,None,2023-11-19 18h25.16.742901 +0100,
7,0,7,0,3,0,3,0,192.58205195801565,,None,1,J,C,2,,,202,brown,2023-11-19_18h25.09.124,experiment,2023.2.2,None,2023-11-19 18h25.16.742901 +0100,
7,0,7,0,4,0,4,0,194.67435187502997,,['space'],1,I,I,2,[0.5892794170067646],[None],202,brown,2023-11-19_18h25.09.124,experiment,2023.2.2,None,2023-11-19 18h25.16.742901 +0100,
7,0,7,0,5,0,5,0,196.75287983298767,,None,1,E,J,2,,,202,brown,2023-11-19_18h25.09.124,experiment,2023.2.2,None,2023-11-19 18h25.16.742901 +0100,
7,0,7,0,6,0,6,0,198.8451312080142,,['space'],1,I,I,2,[0.4647820829995908],[None],202,brown,2023-11-19_18h25.09.124,experiment,2023.2.2,None,2023-11-19 18h25.16.742901 +0100,
7,0,7,0,7,0,7,0,200.93560533301206,,None,1,W,E,2,,,202,brown,2023-11-19_18h25.09.124,experiment,2023.2.2,None,2023-11-19 18h25.16.742901 +0100,
7,0,7,0,8,0,8,0,203.0274262080202,,None,1,P,I,2,,,202,brown,2023-11-19_18h25.09.124,experiment,2023.2.2,None,2023-11-19 18h25.16.742901 +0100,
7,0,7,0,9,0,9,0,205.11935237504076,,['space'],1,W,W,2,[0.7054712920216843],[None],202,brown,2023-11-19_18h25.09.124,experiment,2023.2.2,None,2023-11-19 18h25.16.742901 +0100,
7,0,7,0,10,0,10,0,207.2223380409996,,None,1,O,P,2,,,202,brown,2023-11-19_18h25.09.124,experiment,2023.2.2,None,2023-11-19 18h25.16.742901 +0100,
7,0,7,0,11,0,11,0,209.30645120801637,,None,1,S,W,2,,,202,brown,2023-11-19_18h25.09.124,experiment,2023.2.2,None,2023-11-19 18h25.16.742901 +0100,
7,0,7,0,,,,,,,,,,,,,,202,brown,2023-11-19_18h25.09.124,experiment,2023.2.2,None,2023-11-19 18h25.16.742901 +0100,
