trials_3.thisRepN,trials_3.thisTrialN,trials_3.thisN,trials_3.thisIndex,trials.thisRepN,trials.thisTrialN,trials.thisN,trials.thisIndex,thisRow.t,notes,key_resp_2.keys,key_resp_2.corr,letter.routineEndVal,nback.routineEndVal,type.routineEndVal,key_resp_2.rt,key_resp_2.duration,participant,session,date,expName,psychopyVersion,frameRate,expStart,
0,0,0,0,0,0,0,0,5.40582533297129,,None,1,H,,2,,,203,pink,2023-11-19_19h32.46.248,experiment,2023.2.2,None,2023-11-19 19h32.58.181819 +0100,
0,0,0,0,1,0,1,0,7.488230082963128,,None,1,U,,2,,,203,pink,2023-11-19_19h32.46.248,experiment,2023.2.2,None,2023-11-19 19h32.58.181819 +0100,
0,0,0,0,2,0,2,0,9.571557666000444,,None,1,O,H,2,,,203,pink,2023-11-19_19h32.46.248,experiment,2023.2.2,None,2023-11-19 19h32.58.181819 +0100,
0,0,0,0,3,0,3,0,11.661266415962018,,None,1,I,U,2,,,203,pink,2023-11-19_19h32.46.248,experiment,2023.2.2,None,2023-11-19 19h32.58.181819 +0100,
0,0,0,0,4,0,4,0,13.747054040955845,,['space'],1,O,O,2,[0.4033313749823719],[None],203,pink,2023-11-19_19h32.46.248,experiment,2023.2.2,None,2023-11-19 19h32.58.181819 +0100,
0,0,0,0,5,0,5,0,15.829048749990761,,None,1,O,I,2,,,203,pink,2023-11-19_19h32.46.248,experiment,2023.2.2,None,2023-11-19 19h32.58.181819 +0100,
0,0,0,0,6,0,6,0,17.917147291009314,,None,1,N,O,2,,,203,pink,2023-11-19_19h32.46.248,experiment,2023.2.2,None,2023-11-19 19h32.58.181819 +0100,
0,0,0,0,7,0,7,0,20.000979665957857,,['space'],1,O,O,2,[0.4407361660269089],[None],203,pink,2023-11-19_19h32.46.248,experiment,2023.2.2,None,2023-11-19 19h32.58.181819 +0100,
0,0,0,0,8,0,8,0,22.087281707965303,,None,1,R,N,2,,,203,pink,2023-11-19_19h32.46.248,experiment,2023.2.2,None,2023-11-19 19h32.58.181819 +0100,
0,0,0,0,9,0,9,0,24.16921195795294,,None,1,W,O,2,,,203,pink,2023-11-19_19h32.46.248,experiment,2023.2.2,None,2023-11-19 19h32.58.181819 +0100,
0,0,0,0,10,0,10,0,26.25327795796329,,None,1,F,R,2,,,203,pink,2023-11-19_19h32.46.248,experiment,2023.2.2,None,2023-11-19 19h32.58.181819 +0100,
0,0,0,0,11,0,11,0,28.344941582996398,,None,1,K,W,2,,,203,pink,2023-11-19_19h32.46.248,experiment,2023.2.2,None,2023-11-19 19h32.58.181819 +0100,
0,0,0,0,,,,,,,,,,,,,,203,pink,2023-11-19_19h32.46.248,experiment,2023.2.2,None,2023-11-19 19h32.58.181819 +0100,
1,0,1,0,0,0,0,0,32.3173093329533,,None,1,F,,2,,,203,pink,2023-11-19_19h32.46.248,experiment,2023.2.2,None,2023-11-19 19h32.58.181819 +0100,
1,0,1,0,1,0,1,0,34.40362495800946,,None,1,D,,2,,,203,pink,2023-11-19_19h32.46.248,experiment,2023.2.2,None,2023-11-19 19h32.58.181819 +0100,
1,0,1,0,2,0,2,0,36.484582540986594,,['space'],1,F,F,2,[0.466495374974329],[None],203,pink,2023-11-19_19h32.46.248,experiment,2023.2.2,None,2023-11-19 19h32.58.181819 +0100,
1,0,1,0,3,0,3,0,38.57840020797448,,None,1,P,D,2,,,203,pink,2023-11-19_19h32.46.248,experiment,2023.2.2,None,2023-11-19 19h32.58.181819 +0100,
1,0,1,0,4,0,4,0,40.663793415995315,,None,1,I,F,2,,,203,pink,2023-11-19_19h32.46.248,experiment,2023.2.2,None,2023-11-19 19h32.58.181819 +0100,
1,0,1,0,5,0,5,0,42.76009245798923,,['space'],1,P,P,2,[0.45354129205225036],[None],203,pink,2023-11-19_19h32.46.248,experiment,2023.2.2,None,2023-11-19 19h32.58.181819 +0100,
1,0,1,0,6,0,6,0,44.85298254096415,,None,1,R,I,2,,,203,pink,2023-11-19_19h32.46.248,experiment,2023.2.2,None,2023-11-19 19h32.58.181819 +0100,
1,0,1,0,7,0,7,0,46.93933966598706,,['space'],1,P,P,2,[0.4205556659726426],[None],203,pink,2023-11-19_19h32.46.248,experiment,2023.2.2,None,2023-11-19 19h32.58.181819 +0100,
1,0,1,0,8,0,8,0,49.03075458295643,,None,1,N,R,2,,,203,pink,2023-11-19_19h32.46.248,experiment,2023.2.2,None,2023-11-19 19h32.58.181819 +0100,
1,0,1,0,9,0,9,0,51.12687933299458,,['space'],1,P,P,2,[0.42667566594900563],[None],203,pink,2023-11-19_19h32.46.248,experiment,2023.2.2,None,2023-11-19 19h32.58.181819 +0100,
1,0,1,0,10,0,10,0,53.22406304097967,,None,1,T,N,2,,,203,pink,2023-11-19_19h32.46.248,experiment,2023.2.2,None,2023-11-19 19h32.58.181819 +0100,
1,0,1,0,11,0,11,0,55.30960762500763,,None,1,E,P,2,,,203,pink,2023-11-19_19h32.46.248,experiment,2023.2.2,None,2023-11-19 19h32.58.181819 +0100,
1,0,1,0,,,,,,,,,,,,,,203,pink,2023-11-19_19h32.46.248,experiment,2023.2.2,None,2023-11-19 19h32.58.181819 +0100,
2,0,2,0,0,0,0,0,58.21790824999334,,None,1,T,,1,,,203,pink,2023-11-19_19h32.46.248,experiment,2023.2.2,None,2023-11-19 19h32.58.181819 +0100,
2,0,2,0,1,0,1,0,60.30714562500361,,None,1,L,T,1,,,203,pink,2023-11-19_19h32.46.248,experiment,2023.2.2,None,2023-11-19 19h32.58.181819 +0100,
2,0,2,0,2,0,2,0,62.39503091596998,,['space'],1,L,L,1,[0.5022184579866007],[None],203,pink,2023-11-19_19h32.46.248,experiment,2023.2.2,None,2023-11-19 19h32.58.181819 +0100,
2,0,2,0,3,0,3,0,64.48303387500346,,None,1,Q,L,1,,,203,pink,2023-11-19_19h32.46.248,experiment,2023.2.2,None,2023-11-19 19h32.58.181819 +0100,
2,0,2,0,4,0,4,0,66.57797383295838,,None,1,M,Q,1,,,203,pink,2023-11-19_19h32.46.248,experiment,2023.2.2,None,2023-11-19 19h32.58.181819 +0100,
2,0,2,0,5,0,5,0,68.67052487499313,,['space'],1,M,M,1,[0.45141183299710974],[None],203,pink,2023-11-19_19h32.46.248,experiment,2023.2.2,None,2023-11-19 19h32.58.181819 +0100,
2,0,2,0,6,0,6,0,70.75845833297353,,None,1,A,M,1,,,203,pink,2023-11-19_19h32.46.248,experiment,2023.2.2,None,2023-11-19 19h32.58.181819 +0100,
2,0,2,0,7,0,7,0,72.84709579095943,,None,1,E,A,1,,,203,pink,2023-11-19_19h32.46.248,experiment,2023.2.2,None,2023-11-19 19h32.58.181819 +0100,
2,0,2,0,8,0,8,0,74.9289131659898,,['space'],1,E,E,1,[0.6205620829714462],[None],203,pink,2023-11-19_19h32.46.248,experiment,2023.2.2,None,2023-11-19 19h32.58.181819 +0100,
2,0,2,0,9,0,9,0,77.02410112496,,['space'],1,E,E,1,[0.47071820800192654],[None],203,pink,2023-11-19_19h32.46.248,experiment,2023.2.2,None,2023-11-19 19h32.58.181819 +0100,
2,0,2,0,10,0,10,0,79.1076076659956,,['space'],1,E,E,1,[0.45235400000819936],[None],203,pink,2023-11-19_19h32.46.248,experiment,2023.2.2,None,2023-11-19 19h32.58.181819 +0100,
2,0,2,0,11,0,11,0,81.18918979098089,,None,1,L,E,1,,,203,pink,2023-11-19_19h32.46.248,experiment,2023.2.2,None,2023-11-19 19h32.58.181819 +0100,
2,0,2,0,,,,,,,,,,,,,,203,pink,2023-11-19_19h32.46.248,experiment,2023.2.2,None,2023-11-19 19h32.58.181819 +0100,
3,0,3,0,0,0,0,0,84.44731108297128,,None,1,Y,,2,,,203,pink,2023-11-19_19h32.46.248,experiment,2023.2.2,None,2023-11-19 19h32.58.181819 +0100,
3,0,3,0,1,0,1,0,86.53660791600123,,None,1,N,,2,,,203,pink,2023-11-19_19h32.46.248,experiment,2023.2.2,None,2023-11-19 19h32.58.181819 +0100,
3,0,3,0,2,0,2,0,88.61705299996538,,None,1,S,Y,2,,,203,pink,2023-11-19_19h32.46.248,experiment,2023.2.2,None,2023-11-19 19h32.58.181819 +0100,
3,0,3,0,3,0,3,0,90.71240324998507,,['space'],1,N,N,2,[0.5019977500196546],[None],203,pink,2023-11-19_19h32.46.248,experiment,2023.2.2,None,2023-11-19 19h32.58.181819 +0100,
3,0,3,0,4,0,4,0,92.79337566596223,,None,1,E,S,2,,,203,pink,2023-11-19_19h32.46.248,experiment,2023.2.2,None,2023-11-19 19h32.58.181819 +0100,
3,0,3,0,5,0,5,0,94.88328499998897,,None,1,X,N,2,,,203,pink,2023-11-19_19h32.46.248,experiment,2023.2.2,None,2023-11-19 19h32.58.181819 +0100,
3,0,3,0,6,0,6,0,96.97250554099446,,None,1,F,E,2,,,203,pink,2023-11-19_19h32.46.248,experiment,2023.2.2,None,2023-11-19 19h32.58.181819 +0100,
3,0,3,0,7,0,7,0,99.05589399999008,,None,1,R,X,2,,,203,pink,2023-11-19_19h32.46.248,experiment,2023.2.2,None,2023-11-19 19h32.58.181819 +0100,
3,0,3,0,8,0,8,0,101.15155533299549,,None,1,Q,F,2,,,203,pink,2023-11-19_19h32.46.248,experiment,2023.2.2,None,2023-11-19 19h32.58.181819 +0100,
3,0,3,0,9,0,9,0,103.23450337495888,,None,1,I,R,2,,,203,pink,2023-11-19_19h32.46.248,experiment,2023.2.2,None,2023-11-19 19h32.58.181819 +0100,
3,0,3,0,10,0,10,0,105.32216224999866,,['space'],1,Q,Q,2,[0.4606831250130199],[None],203,pink,2023-11-19_19h32.46.248,experiment,2023.2.2,None,2023-11-19 19h32.58.181819 +0100,
3,0,3,0,11,0,11,0,107.41412387497257,,['space'],1,I,I,2,[1.1431540839839727],[None],203,pink,2023-11-19_19h32.46.248,experiment,2023.2.2,None,2023-11-19 19h32.58.181819 +0100,
3,0,3,0,,,,,,,,,,,,,,203,pink,2023-11-19_19h32.46.248,experiment,2023.2.2,None,2023-11-19 19h32.58.181819 +0100,
4,0,4,0,0,0,0,0,111.08387183299055,,None,1,E,,1,,,203,pink,2023-11-19_19h32.46.248,experiment,2023.2.2,None,2023-11-19 19h32.58.181819 +0100,
4,0,4,0,1,0,1,0,113.1708486249554,,['space'],1,E,E,1,[0.4077888749889098],[None],203,pink,2023-11-19_19h32.46.248,experiment,2023.2.2,None,2023-11-19 19h32.58.181819 +0100,
4,0,4,0,2,0,2,0,115.26562395796645,,None,1,I,E,1,,,203,pink,2023-11-19_19h32.46.248,experiment,2023.2.2,None,2023-11-19 19h32.58.181819 +0100,
4,0,4,0,3,0,3,0,117.34467324998695,,['space'],1,I,I,1,[0.40571750001981854],[None],203,pink,2023-11-19_19h32.46.248,experiment,2023.2.2,None,2023-11-19 19h32.58.181819 +0100,
4,0,4,0,4,0,4,0,119.4398050410091,,None,1,P,I,1,,,203,pink,2023-11-19_19h32.46.248,experiment,2023.2.2,None,2023-11-19 19h32.58.181819 +0100,
4,0,4,0,5,0,5,0,121.52910958300345,,['space'],1,P,P,1,[0.3716642919462174],[None],203,pink,2023-11-19_19h32.46.248,experiment,2023.2.2,None,2023-11-19 19h32.58.181819 +0100,
4,0,4,0,6,0,6,0,123.61446266598068,,None,1,T,P,1,,,203,pink,2023-11-19_19h32.46.248,experiment,2023.2.2,None,2023-11-19 19h32.58.181819 +0100,
4,0,4,0,7,0,7,0,125.70070341596147,,None,1,G,T,1,,,203,pink,2023-11-19_19h32.46.248,experiment,2023.2.2,None,2023-11-19 19h32.58.181819 +0100,
4,0,4,0,8,0,8,0,127.79374270798871,,None,1,U,G,1,,,203,pink,2023-11-19_19h32.46.248,experiment,2023.2.2,None,2023-11-19 19h32.58.181819 +0100,
4,0,4,0,9,0,9,0,129.88679204095388,,None,1,D,U,1,,,203,pink,2023-11-19_19h32.46.248,experiment,2023.2.2,None,2023-11-19 19h32.58.181819 +0100,
4,0,4,0,10,0,10,0,131.96345258300425,,['space'],1,D,D,1,[0.41704495903104544],[None],203,pink,2023-11-19_19h32.46.248,experiment,2023.2.2,None,2023-11-19 19h32.58.181819 +0100,
4,0,4,0,11,0,11,0,134.0520344999968,,None,1,U,D,1,,,203,pink,2023-11-19_19h32.46.248,experiment,2023.2.2,None,2023-11-19 19h32.58.181819 +0100,
4,0,4,0,,,,,,,,,,,,,,203,pink,2023-11-19_19h32.46.248,experiment,2023.2.2,None,2023-11-19 19h32.58.181819 +0100,
5,0,5,0,0,0,0,0,137.1688406660105,,None,1,U,,2,,,203,pink,2023-11-19_19h32.46.248,experiment,2023.2.2,None,2023-11-19 19h32.58.181819 +0100,
5,0,5,0,1,0,1,0,139.25210066599539,,None,1,Y,,2,,,203,pink,2023-11-19_19h32.46.248,experiment,2023.2.2,None,2023-11-19 19h32.58.181819 +0100,
5,0,5,0,2,0,2,0,141.34308600000804,,['space'],1,U,U,2,[0.5456234170123935],[None],203,pink,2023-11-19_19h32.46.248,experiment,2023.2.2,None,2023-11-19 19h32.58.181819 +0100,
5,0,5,0,3,0,3,0,143.43543062498793,,None,1,F,Y,2,,,203,pink,2023-11-19_19h32.46.248,experiment,2023.2.2,None,2023-11-19 19h32.58.181819 +0100,
5,0,5,0,4,0,4,0,145.518312375003,,None,1,H,U,2,,,203,pink,2023-11-19_19h32.46.248,experiment,2023.2.2,None,2023-11-19 19h32.58.181819 +0100,
5,0,5,0,5,0,5,0,147.60160295799142,,['space'],1,F,F,2,[0.42298679100349545],[None],203,pink,2023-11-19_19h32.46.248,experiment,2023.2.2,None,2023-11-19 19h32.58.181819 +0100,
5,0,5,0,6,0,6,0,149.68477004097076,,['space'],1,H,H,2,[0.4327792080002837],[None],203,pink,2023-11-19_19h32.46.248,experiment,2023.2.2,None,2023-11-19 19h32.58.181819 +0100,
5,0,5,0,7,0,7,0,151.77472570800455,,None,1,Z,F,2,,,203,pink,2023-11-19_19h32.46.248,experiment,2023.2.2,None,2023-11-19 19h32.58.181819 +0100,
5,0,5,0,8,0,8,0,153.85612029099138,,None,1,T,H,2,,,203,pink,2023-11-19_19h32.46.248,experiment,2023.2.2,None,2023-11-19 19h32.58.181819 +0100,
5,0,5,0,9,0,9,0,155.93945591599913,,None,1,M,Z,2,,,203,pink,2023-11-19_19h32.46.248,experiment,2023.2.2,None,2023-11-19 19h32.58.181819 +0100,
5,0,5,0,10,0,10,0,158.0347127909772,,None,1,X,T,2,,,203,pink,2023-11-19_19h32.46.248,experiment,2023.2.2,None,2023-11-19 19h32.58.181819 +0100,
5,0,5,0,11,0,11,0,160.11848995799664,,['space'],1,M,M,2,[0.4626236659823917],[None],203,pink,2023-11-19_19h32.46.248,experiment,2023.2.2,None,2023-11-19 19h32.58.181819 +0100,
5,0,5,0,,,,,,,,,,,,,,203,pink,2023-11-19_19h32.46.248,experiment,2023.2.2,None,2023-11-19 19h32.58.181819 +0100,
6,0,6,0,0,0,0,0,162.96041070797946,,None,1,J,,1,,,203,pink,2023-11-19_19h32.46.248,experiment,2023.2.2,None,2023-11-19 19h32.58.181819 +0100,
6,0,6,0,1,0,1,0,165.04594770795666,,['space'],1,J,J,1,[0.4838185000116937],[None],203,pink,2023-11-19_19h32.46.248,experiment,2023.2.2,None,2023-11-19 19h32.58.181819 +0100,
6,0,6,0,2,0,2,0,167.1352372499532,,None,1,G,J,1,,,203,pink,2023-11-19_19h32.46.248,experiment,2023.2.2,None,2023-11-19 19h32.58.181819 +0100,
6,0,6,0,3,0,3,0,169.22845508297905,,['space'],1,G,G,1,[0.4475006250431761],[None],203,pink,2023-11-19_19h32.46.248,experiment,2023.2.2,None,2023-11-19 19h32.58.181819 +0100,
6,0,6,0,4,0,4,0,171.30548479099525,,None,1,K,G,1,,,203,pink,2023-11-19_19h32.46.248,experiment,2023.2.2,None,2023-11-19 19h32.58.181819 +0100,
6,0,6,0,5,0,5,0,173.39765416597947,,None,1,U,K,1,,,203,pink,2023-11-19_19h32.46.248,experiment,2023.2.2,None,2023-11-19 19h32.58.181819 +0100,
6,0,6,0,6,0,6,0,175.4803476249799,,None,1,O,U,1,,,203,pink,2023-11-19_19h32.46.248,experiment,2023.2.2,None,2023-11-19 19h32.58.181819 +0100,
6,0,6,0,7,0,7,0,177.5708615409676,,['space'],1,O,O,1,[0.45787566603394225],[None],203,pink,2023-11-19_19h32.46.248,experiment,2023.2.2,None,2023-11-19 19h32.58.181819 +0100,
6,0,6,0,8,0,8,0,179.65437662496697,,['space'],1,O,O,1,[0.5093094590120018],[None],203,pink,2023-11-19_19h32.46.248,experiment,2023.2.2,None,2023-11-19 19h32.58.181819 +0100,
6,0,6,0,9,0,9,0,181.74307037499966,,None,1,Y,O,1,,,203,pink,2023-11-19_19h32.46.248,experiment,2023.2.2,None,2023-11-19 19h32.58.181819 +0100,
6,0,6,0,10,0,10,0,183.82563295797445,,['space'],1,Y,Y,1,[0.49899691599421203],[None],203,pink,2023-11-19_19h32.46.248,experiment,2023.2.2,None,2023-11-19 19h32.58.181819 +0100,
6,0,6,0,11,0,11,0,185.92248258297332,,None,1,E,Y,1,,,203,pink,2023-11-19_19h32.46.248,experiment,2023.2.2,None,2023-11-19 19h32.58.181819 +0100,
6,0,6,0,,,,,,,,,,,,,,203,pink,2023-11-19_19h32.46.248,experiment,2023.2.2,None,2023-11-19 19h32.58.181819 +0100,
7,0,7,0,0,0,0,0,188.85899133299245,,None,1,N,,1,,,203,pink,2023-11-19_19h32.46.248,experiment,2023.2.2,None,2023-11-19 19h32.58.181819 +0100,
7,0,7,0,1,0,1,0,190.94120299996575,,['space'],1,N,N,1,[0.417752041015774],[None],203,pink,2023-11-19_19h32.46.248,experiment,2023.2.2,None,2023-11-19 19h32.58.181819 +0100,
7,0,7,0,2,0,2,0,193.02679400000488,,None,1,Q,N,1,,,203,pink,2023-11-19_19h32.46.248,experiment,2023.2.2,None,2023-11-19 19h32.58.181819 +0100,
7,0,7,0,3,0,3,0,195.11034349998226,,None,1,H,Q,1,,,203,pink,2023-11-19_19h32.46.248,experiment,2023.2.2,None,2023-11-19 19h32.58.181819 +0100,
7,0,7,0,4,0,4,0,197.19182549999095,,['space'],1,H,H,1,[0.45761504099937156],[None],203,pink,2023-11-19_19h32.46.248,experiment,2023.2.2,None,2023-11-19 19h32.58.181819 +0100,
7,0,7,0,5,0,5,0,199.27638629096327,,None,1,S,H,1,,,203,pink,2023-11-19_19h32.46.248,experiment,2023.2.2,None,2023-11-19 19h32.58.181819 +0100,
7,0,7,0,6,0,6,0,201.37052137497813,,['space'],1,S,S,1,[0.42490025004372],[None],203,pink,2023-11-19_19h32.46.248,experiment,2023.2.2,None,2023-11-19 19h32.58.181819 +0100,
7,0,7,0,7,0,7,0,203.46458216599422,,None,1,R,S,1,,,203,pink,2023-11-19_19h32.46.248,experiment,2023.2.2,None,2023-11-19 19h32.58.181819 +0100,
7,0,7,0,8,0,8,0,205.5581125000026,,['space'],1,R,R,1,[0.47906516696093604],[None],203,pink,2023-11-19_19h32.46.248,experiment,2023.2.2,None,2023-11-19 19h32.58.181819 +0100,
7,0,7,0,9,0,9,0,207.64773987495573,,None,1,D,R,1,,,203,pink,2023-11-19_19h32.46.248,experiment,2023.2.2,None,2023-11-19 19h32.58.181819 +0100,
7,0,7,0,10,0,10,0,209.73100762499962,,None,1,S,D,1,,,203,pink,2023-11-19_19h32.46.248,experiment,2023.2.2,None,2023-11-19 19h32.58.181819 +0100,
7,0,7,0,11,0,11,0,211.82052199996542,,['space'],1,S,S,1,[0.5207139579579234],[None],203,pink,2023-11-19_19h32.46.248,experiment,2023.2.2,None,2023-11-19 19h32.58.181819 +0100,
7,0,7,0,,,,,,,,,,,,,,203,pink,2023-11-19_19h32.46.248,experiment,2023.2.2,None,2023-11-19 19h32.58.181819 +0100,
