trials_3.thisRepN,trials_3.thisTrialN,trials_3.thisN,trials_3.thisIndex,trials.thisRepN,trials.thisTrialN,trials.thisN,trials.thisIndex,thisRow.t,notes,key_resp_2.keys,key_resp_2.corr,letter.routineEndVal,nback.routineEndVal,type.routineEndVal,key_resp_2.rt,key_resp_2.duration,participant,session,date,expName,psychopyVersion,frameRate,expStart,
0,0,0,0,0,0,0,0,3.3146231250138953,,None,1,K,,1,,,204,pink,2023-11-19_19h51.07.818,experiment,2023.2.2,None,2023-11-19 19h51.39.427823 +0100,
0,0,0,0,1,0,1,0,5.403072041051928,,None,1,X,K,1,,,204,pink,2023-11-19_19h51.07.818,experiment,2023.2.2,None,2023-11-19 19h51.39.427823 +0100,
0,0,0,0,2,0,2,0,7.487277416046709,,['space'],1,X,X,1,[0.5087475419859402],[None],204,pink,2023-11-19_19h51.07.818,experiment,2023.2.2,None,2023-11-19 19h51.39.427823 +0100,
0,0,0,0,3,0,3,0,9.578457208001055,,None,1,R,X,1,,,204,pink,2023-11-19_19h51.07.818,experiment,2023.2.2,None,2023-11-19 19h51.39.427823 +0100,
0,0,0,0,4,0,4,0,11.665320708008949,,None,1,D,R,1,,,204,pink,2023-11-19_19h51.07.818,experiment,2023.2.2,None,2023-11-19 19h51.39.427823 +0100,
0,0,0,0,5,0,5,0,13.7482171660522,,None,1,Y,D,1,,,204,pink,2023-11-19_19h51.07.818,experiment,2023.2.2,None,2023-11-19 19h51.39.427823 +0100,
0,0,0,0,6,0,6,0,15.82827191601973,,['space'],1,Y,Y,1,[0.481832541001495],[None],204,pink,2023-11-19_19h51.07.818,experiment,2023.2.2,None,2023-11-19 19h51.39.427823 +0100,
0,0,0,0,7,0,7,0,17.911329500027932,,['space'],1,Y,Y,1,[0.5646767499856651],[None],204,pink,2023-11-19_19h51.07.818,experiment,2023.2.2,None,2023-11-19 19h51.39.427823 +0100,
0,0,0,0,8,0,8,0,20.003196875040885,,['space'],1,Y,Y,1,[0.5011764999944717],[None],204,pink,2023-11-19_19h51.07.818,experiment,2023.2.2,None,2023-11-19 19h51.39.427823 +0100,
0,0,0,0,9,0,9,0,22.09831829101313,,['space'],1,Y,Y,1,[0.5355215419549495],[None],204,pink,2023-11-19_19h51.07.818,experiment,2023.2.2,None,2023-11-19 19h51.39.427823 +0100,
0,0,0,0,10,0,10,0,24.181619750044774,,None,1,T,Y,1,,,204,pink,2023-11-19_19h51.07.818,experiment,2023.2.2,None,2023-11-19 19h51.39.427823 +0100,
0,0,0,0,11,0,11,0,26.273280708002858,,None,1,D,T,1,,,204,pink,2023-11-19_19h51.07.818,experiment,2023.2.2,None,2023-11-19 19h51.39.427823 +0100,
0,0,0,0,,,,,,,,,,,,,,204,pink,2023-11-19_19h51.07.818,experiment,2023.2.2,None,2023-11-19 19h51.39.427823 +0100,
1,0,1,0,0,0,0,0,29.15067333303159,,None,1,H,,1,,,204,pink,2023-11-19_19h51.07.818,experiment,2023.2.2,None,2023-11-19 19h51.39.427823 +0100,
1,0,1,0,1,0,1,0,31.233304082998075,,None,1,G,H,1,,,204,pink,2023-11-19_19h51.07.818,experiment,2023.2.2,None,2023-11-19 19h51.39.427823 +0100,
1,0,1,0,2,0,2,0,33.319730125018395,,['space'],1,G,G,1,[0.7360856659943238],[None],204,pink,2023-11-19_19h51.07.818,experiment,2023.2.2,None,2023-11-19 19h51.39.427823 +0100,
1,0,1,0,3,0,3,0,35.41573870804859,,None,1,M,G,1,,,204,pink,2023-11-19_19h51.07.818,experiment,2023.2.2,None,2023-11-19 19h51.39.427823 +0100,
1,0,1,0,4,0,4,0,37.50636912503978,,None,1,B,M,1,,,204,pink,2023-11-19_19h51.07.818,experiment,2023.2.2,None,2023-11-19 19h51.39.427823 +0100,
1,0,1,0,5,0,5,0,39.59071150003001,,['space'],1,B,B,1,[0.7638786670286208],[None],204,pink,2023-11-19_19h51.07.818,experiment,2023.2.2,None,2023-11-19 19h51.39.427823 +0100,
1,0,1,0,6,0,6,0,41.67787104099989,,None,1,F,B,1,,,204,pink,2023-11-19_19h51.07.818,experiment,2023.2.2,None,2023-11-19 19h51.39.427823 +0100,
1,0,1,0,7,0,7,0,43.76159850001568,,['space'],1,F,F,1,[0.8250249170232564],[None],204,pink,2023-11-19_19h51.07.818,experiment,2023.2.2,None,2023-11-19 19h51.39.427823 +0100,
1,0,1,0,8,0,8,0,45.856707958038896,,['space'],1,F,F,1,[0.8413744160206988],[None],204,pink,2023-11-19_19h51.07.818,experiment,2023.2.2,None,2023-11-19 19h51.39.427823 +0100,
1,0,1,0,9,0,9,0,47.93916629103478,,None,1,B,F,1,,,204,pink,2023-11-19_19h51.07.818,experiment,2023.2.2,None,2023-11-19 19h51.39.427823 +0100,
1,0,1,0,10,0,10,0,50.01968816603767,,['space'],1,B,B,1,[0.7708465000032447],[None],204,pink,2023-11-19_19h51.07.818,experiment,2023.2.2,None,2023-11-19 19h51.39.427823 +0100,
1,0,1,0,11,0,11,0,52.11310941603733,,None,1,M,B,1,,,204,pink,2023-11-19_19h51.07.818,experiment,2023.2.2,None,2023-11-19 19h51.39.427823 +0100,
1,0,1,0,,,,,,,,,,,,,,204,pink,2023-11-19_19h51.07.818,experiment,2023.2.2,None,2023-11-19 19h51.39.427823 +0100,
2,0,2,0,0,0,0,0,55.11187466600677,,None,1,F,,1,,,204,pink,2023-11-19_19h51.07.818,experiment,2023.2.2,None,2023-11-19 19h51.39.427823 +0100,
2,0,2,0,1,0,1,0,57.19923554104753,,['space'],1,F,F,1,[0.48259408300509676],[None],204,pink,2023-11-19_19h51.07.818,experiment,2023.2.2,None,2023-11-19 19h51.39.427823 +0100,
2,0,2,0,2,0,2,0,59.28429362503812,,None,1,R,F,1,,,204,pink,2023-11-19_19h51.07.818,experiment,2023.2.2,None,2023-11-19 19h51.39.427823 +0100,
2,0,2,0,3,0,3,0,61.37577720801346,,None,1,F,R,1,,,204,pink,2023-11-19_19h51.07.818,experiment,2023.2.2,None,2023-11-19 19h51.39.427823 +0100,
2,0,2,0,4,0,4,0,63.45718620804837,,['space'],1,F,F,1,[0.7709268750040792],[None],204,pink,2023-11-19_19h51.07.818,experiment,2023.2.2,None,2023-11-19 19h51.39.427823 +0100,
2,0,2,0,5,0,5,0,65.5566693750443,,['space'],1,F,F,1,[0.5420167080010287],[None],204,pink,2023-11-19_19h51.07.818,experiment,2023.2.2,None,2023-11-19 19h51.39.427823 +0100,
2,0,2,0,6,0,6,0,67.63669295801083,,None,1,S,F,1,,,204,pink,2023-11-19_19h51.07.818,experiment,2023.2.2,None,2023-11-19 19h51.39.427823 +0100,
2,0,2,0,7,0,7,0,69.72199683304643,,None,1,K,S,1,,,204,pink,2023-11-19_19h51.07.818,experiment,2023.2.2,None,2023-11-19 19h51.39.427823 +0100,
2,0,2,0,8,0,8,0,71.81763920804951,,None,1,X,K,1,,,204,pink,2023-11-19_19h51.07.818,experiment,2023.2.2,None,2023-11-19 19h51.39.427823 +0100,
2,0,2,0,9,0,9,0,73.91086679103319,,['space'],1,X,X,1,[0.659936459036544],[None],204,pink,2023-11-19_19h51.07.818,experiment,2023.2.2,None,2023-11-19 19h51.39.427823 +0100,
2,0,2,0,10,0,10,0,75.99416404101066,,None,1,F,X,1,,,204,pink,2023-11-19_19h51.07.818,experiment,2023.2.2,None,2023-11-19 19h51.39.427823 +0100,
2,0,2,0,11,0,11,0,78.07421920803608,,None,1,N,F,1,,,204,pink,2023-11-19_19h51.07.818,experiment,2023.2.2,None,2023-11-19 19h51.39.427823 +0100,
2,0,2,0,,,,,,,,,,,,,,204,pink,2023-11-19_19h51.07.818,experiment,2023.2.2,None,2023-11-19 19h51.39.427823 +0100,
3,0,3,0,0,0,0,0,80.96257195802173,,None,1,B,,1,,,204,pink,2023-11-19_19h51.07.818,experiment,2023.2.2,None,2023-11-19 19h51.39.427823 +0100,
3,0,3,0,1,0,1,0,83.04462912504096,,['space'],1,B,B,1,[0.5552651250036433],[None],204,pink,2023-11-19_19h51.07.818,experiment,2023.2.2,None,2023-11-19 19h51.39.427823 +0100,
3,0,3,0,2,0,2,0,85.14009120804258,,None,1,K,B,1,,,204,pink,2023-11-19_19h51.07.818,experiment,2023.2.2,None,2023-11-19 19h51.39.427823 +0100,
3,0,3,0,3,0,3,0,87.21957791602472,,['space'],1,K,K,1,[0.6710790829965845],[None],204,pink,2023-11-19_19h51.07.818,experiment,2023.2.2,None,2023-11-19 19h51.39.427823 +0100,
3,0,3,0,4,0,4,0,89.30698420800036,,None,1,W,K,1,,,204,pink,2023-11-19_19h51.07.818,experiment,2023.2.2,None,2023-11-19 19h51.39.427823 +0100,
3,0,3,0,5,0,5,0,91.39859804103617,,None,1,U,W,1,,,204,pink,2023-11-19_19h51.07.818,experiment,2023.2.2,None,2023-11-19 19h51.39.427823 +0100,
3,0,3,0,6,0,6,0,93.49438558303518,,None,1,A,U,1,,,204,pink,2023-11-19_19h51.07.818,experiment,2023.2.2,None,2023-11-19 19h51.39.427823 +0100,
3,0,3,0,7,0,7,0,95.58583733305568,,None,1,J,A,1,,,204,pink,2023-11-19_19h51.07.818,experiment,2023.2.2,None,2023-11-19 19h51.39.427823 +0100,
3,0,3,0,8,0,8,0,97.66429045802215,,None,1,O,J,1,,,204,pink,2023-11-19_19h51.07.818,experiment,2023.2.2,None,2023-11-19 19h51.39.427823 +0100,
3,0,3,0,9,0,9,0,99.7508936660015,,None,1,M,O,1,,,204,pink,2023-11-19_19h51.07.818,experiment,2023.2.2,None,2023-11-19 19h51.39.427823 +0100,
3,0,3,0,10,0,10,0,101.83284920803271,,['space'],1,M,M,1,[0.7627443330129609],[None],204,pink,2023-11-19_19h51.07.818,experiment,2023.2.2,None,2023-11-19 19h51.39.427823 +0100,
3,0,3,0,11,0,11,0,103.91684020805405,,['space'],1,M,M,1,[0.7863879580399953],[None],204,pink,2023-11-19_19h51.07.818,experiment,2023.2.2,None,2023-11-19 19h51.39.427823 +0100,
3,0,3,0,,,,,,,,,,,,,,204,pink,2023-11-19_19h51.07.818,experiment,2023.2.2,None,2023-11-19 19h51.39.427823 +0100,
4,0,4,0,0,0,0,0,106.80158420803491,,None,1,M,,2,,,204,pink,2023-11-19_19h51.07.818,experiment,2023.2.2,None,2023-11-19 19h51.39.427823 +0100,
4,0,4,0,1,0,1,0,108.8878043750301,,None,1,Z,,2,,,204,pink,2023-11-19_19h51.07.818,experiment,2023.2.2,None,2023-11-19 19h51.39.427823 +0100,
4,0,4,0,2,0,2,0,110.98346141603542,,['space'],1,M,M,2,[0.536951957968995],[None],204,pink,2023-11-19_19h51.07.818,experiment,2023.2.2,None,2023-11-19 19h51.39.427823 +0100,
4,0,4,0,3,0,3,0,113.07753720803885,,None,1,U,Z,2,,,204,pink,2023-11-19_19h51.07.818,experiment,2023.2.2,None,2023-11-19 19h51.39.427823 +0100,
4,0,4,0,4,0,4,0,115.15377512504347,,None,1,I,M,2,,,204,pink,2023-11-19_19h51.07.818,experiment,2023.2.2,None,2023-11-19 19h51.39.427823 +0100,
4,0,4,0,5,0,5,0,117.24428304104367,,['space'],1,U,U,2,[0.6005635000183247],[None],204,pink,2023-11-19_19h51.07.818,experiment,2023.2.2,None,2023-11-19 19h51.39.427823 +0100,
4,0,4,0,6,0,6,0,119.32639450003626,,['space'],1,I,I,2,[0.5701145000057295],[None],204,pink,2023-11-19_19h51.07.818,experiment,2023.2.2,None,2023-11-19 19h51.39.427823 +0100,
4,0,4,0,7,0,7,0,121.41789729101583,,None,1,T,U,2,,,204,pink,2023-11-19_19h51.07.818,experiment,2023.2.2,None,2023-11-19 19h51.39.427823 +0100,
4,0,4,0,8,0,8,0,123.51143745804438,,None,1,L,I,2,,,204,pink,2023-11-19_19h51.07.818,experiment,2023.2.2,None,2023-11-19 19h51.39.427823 +0100,
4,0,4,0,9,0,9,0,125.59716250002384,,['space'],1,T,T,2,[1.186130582995247],[None],204,pink,2023-11-19_19h51.07.818,experiment,2023.2.2,None,2023-11-19 19h51.39.427823 +0100,
4,0,4,0,10,0,10,0,127.68654850003077,,None,1,E,L,2,,,204,pink,2023-11-19_19h51.07.818,experiment,2023.2.2,None,2023-11-19 19h51.39.427823 +0100,
4,0,4,0,11,0,11,0,129.77568583301036,,['space'],1,T,T,2,[0.7906257499707863],[None],204,pink,2023-11-19_19h51.07.818,experiment,2023.2.2,None,2023-11-19 19h51.39.427823 +0100,
4,0,4,0,,,,,,,,,,,,,,204,pink,2023-11-19_19h51.07.818,experiment,2023.2.2,None,2023-11-19 19h51.39.427823 +0100,
5,0,5,0,0,0,0,0,132.57771487504942,,None,1,Y,,2,,,204,pink,2023-11-19_19h51.07.818,experiment,2023.2.2,None,2023-11-19 19h51.39.427823 +0100,
5,0,5,0,1,0,1,0,134.65935470804106,,None,1,E,,2,,,204,pink,2023-11-19_19h51.07.818,experiment,2023.2.2,None,2023-11-19 19h51.39.427823 +0100,
5,0,5,0,2,0,2,0,136.74333229102194,,['space'],1,Y,Y,2,[0.6328820419730619],[None],204,pink,2023-11-19_19h51.07.818,experiment,2023.2.2,None,2023-11-19 19h51.39.427823 +0100,
5,0,5,0,3,0,3,0,138.83259725000244,,None,1,Y,E,2,,,204,pink,2023-11-19_19h51.07.818,experiment,2023.2.2,None,2023-11-19 19h51.39.427823 +0100,
5,0,5,0,4,0,4,0,140.92167237499962,,None,1,Z,Y,2,,,204,pink,2023-11-19_19h51.07.818,experiment,2023.2.2,None,2023-11-19 19h51.39.427823 +0100,
5,0,5,0,5,0,5,0,143.00513325002976,,['space'],1,Y,Y,2,[1.5720392090152018],[None],204,pink,2023-11-19_19h51.07.818,experiment,2023.2.2,None,2023-11-19 19h51.39.427823 +0100,
5,0,5,0,6,0,6,0,145.09437504102243,,['space'],1,Z,Z,2,[1.2364815829787403],[None],204,pink,2023-11-19_19h51.07.818,experiment,2023.2.2,None,2023-11-19 19h51.39.427823 +0100,
5,0,5,0,7,0,7,0,147.18590841605328,,None,1,A,Y,2,,,204,pink,2023-11-19_19h51.07.818,experiment,2023.2.2,None,2023-11-19 19h51.39.427823 +0100,
5,0,5,0,8,0,8,0,149.26552279101452,,None,1,Q,Z,2,,,204,pink,2023-11-19_19h51.07.818,experiment,2023.2.2,None,2023-11-19 19h51.39.427823 +0100,
5,0,5,0,9,0,9,0,151.34662033303175,,['space'],1,A,A,2,[0.8651707920362242],[None],204,pink,2023-11-19_19h51.07.818,experiment,2023.2.2,None,2023-11-19 19h51.39.427823 +0100,
5,0,5,0,10,0,10,0,153.43983729102183,,None,1,P,Q,2,,,204,pink,2023-11-19_19h51.07.818,experiment,2023.2.2,None,2023-11-19 19h51.39.427823 +0100,
5,0,5,0,11,0,11,0,155.521475458052,,None,1,U,A,2,,,204,pink,2023-11-19_19h51.07.818,experiment,2023.2.2,None,2023-11-19 19h51.39.427823 +0100,
5,0,5,0,,,,,,,,,,,,,,204,pink,2023-11-19_19h51.07.818,experiment,2023.2.2,None,2023-11-19 19h51.39.427823 +0100,
6,0,6,0,0,0,0,0,158.30781470803777,,None,1,P,,2,,,204,pink,2023-11-19_19h51.07.818,experiment,2023.2.2,None,2023-11-19 19h51.39.427823 +0100,
6,0,6,0,1,0,1,0,160.38843950000592,,None,1,T,,2,,,204,pink,2023-11-19_19h51.07.818,experiment,2023.2.2,None,2023-11-19 19h51.39.427823 +0100,
6,0,6,0,2,0,2,0,162.47166408301564,,None,1,H,P,2,,,204,pink,2023-11-19_19h51.07.818,experiment,2023.2.2,None,2023-11-19 19h51.39.427823 +0100,
6,0,6,0,3,0,3,0,164.55590258300072,,['space'],1,T,T,2,[0.8050248750369065],[None],204,pink,2023-11-19_19h51.07.818,experiment,2023.2.2,None,2023-11-19 19h51.39.427823 +0100,
6,0,6,0,4,0,4,0,166.6443343750434,,None,1,F,H,2,,,204,pink,2023-11-19_19h51.07.818,experiment,2023.2.2,None,2023-11-19 19h51.39.427823 +0100,
6,0,6,0,5,0,5,0,168.72985395800788,,None,1,Z,T,2,,,204,pink,2023-11-19_19h51.07.818,experiment,2023.2.2,None,2023-11-19 19h51.39.427823 +0100,
6,0,6,0,6,0,6,0,170.81539350003004,,None,1,V,F,2,,,204,pink,2023-11-19_19h51.07.818,experiment,2023.2.2,None,2023-11-19 19h51.39.427823 +0100,
6,0,6,0,7,0,7,0,172.90673525002785,,['space'],1,Z,Z,2,[1.1978754170122556],[None],204,pink,2023-11-19_19h51.07.818,experiment,2023.2.2,None,2023-11-19 19h51.39.427823 +0100,
6,0,6,0,8,0,8,0,174.9986062910175,,['space'],1,V,V,2,[1.7001560419448651],[None],204,pink,2023-11-19_19h51.07.818,experiment,2023.2.2,None,2023-11-19 19h51.39.427823 +0100,
6,0,6,0,9,0,9,0,177.08184195804643,,None,1,Q,Z,2,,,204,pink,2023-11-19_19h51.07.818,experiment,2023.2.2,None,2023-11-19 19h51.39.427823 +0100,
6,0,6,0,10,0,10,0,179.15939987503225,,None,1,W,V,2,,,204,pink,2023-11-19_19h51.07.818,experiment,2023.2.2,None,2023-11-19 19h51.39.427823 +0100,
6,0,6,0,11,0,11,0,181.25040891603567,,['space'],1,Q,Q,2,[1.2191111669526435],[None],204,pink,2023-11-19_19h51.07.818,experiment,2023.2.2,None,2023-11-19 19h51.39.427823 +0100,
6,0,6,0,,,,,,,,,,,,,,204,pink,2023-11-19_19h51.07.818,experiment,2023.2.2,None,2023-11-19 19h51.39.427823 +0100,
7,0,7,0,0,0,0,0,184.01157766603865,,None,1,W,,2,,,204,pink,2023-11-19_19h51.07.818,experiment,2023.2.2,None,2023-11-19 19h51.39.427823 +0100,
7,0,7,0,1,0,1,0,186.10127408301923,,None,1,Q,,2,,,204,pink,2023-11-19_19h51.07.818,experiment,2023.2.2,None,2023-11-19 19h51.39.427823 +0100,
7,0,7,0,2,0,2,0,188.18586333305575,,['space'],1,W,W,2,[0.5598104999517091],[None],204,pink,2023-11-19_19h51.07.818,experiment,2023.2.2,None,2023-11-19 19h51.39.427823 +0100,
7,0,7,0,3,0,3,0,190.2804094160092,,['space'],1,Q,Q,2,[0.6018330000224523],[None],204,pink,2023-11-19_19h51.07.818,experiment,2023.2.2,None,2023-11-19 19h51.39.427823 +0100,
7,0,7,0,4,0,4,0,192.3719286660198,,None,1,X,W,2,,,204,pink,2023-11-19_19h51.07.818,experiment,2023.2.2,None,2023-11-19 19h51.39.427823 +0100,
7,0,7,0,5,0,5,0,194.46509208303178,,None,1,B,Q,2,,,204,pink,2023-11-19_19h51.07.818,experiment,2023.2.2,None,2023-11-19 19h51.39.427823 +0100,
7,0,7,0,6,0,6,0,196.55128154100385,,['space'],1,X,X,2,[1.0441986250225455],[None],204,pink,2023-11-19_19h51.07.818,experiment,2023.2.2,None,2023-11-19 19h51.39.427823 +0100,
7,0,7,0,7,0,7,0,198.63407100003678,,['space'],1,B,B,2,[1.043655999994371],[None],204,pink,2023-11-19_19h51.07.818,experiment,2023.2.2,None,2023-11-19 19h51.39.427823 +0100,
7,0,7,0,8,0,8,0,200.7256234580418,,None,1,M,X,2,,,204,pink,2023-11-19_19h51.07.818,experiment,2023.2.2,None,2023-11-19 19h51.39.427823 +0100,
7,0,7,0,9,0,9,0,202.8180970410467,,['space'],1,B,B,2,[1.1052790000103414],[None],204,pink,2023-11-19_19h51.07.818,experiment,2023.2.2,None,2023-11-19 19h51.39.427823 +0100,
7,0,7,0,10,0,10,0,204.90077458304586,,None,1,N,M,2,,,204,pink,2023-11-19_19h51.07.818,experiment,2023.2.2,None,2023-11-19 19h51.39.427823 +0100,
7,0,7,0,11,0,11,0,206.9844555000309,,None,1,U,B,2,,,204,pink,2023-11-19_19h51.07.818,experiment,2023.2.2,None,2023-11-19 19h51.39.427823 +0100,
7,0,7,0,,,,,,,,,,,,,,204,pink,2023-11-19_19h51.07.818,experiment,2023.2.2,None,2023-11-19 19h51.39.427823 +0100,
