trials_3.thisRepN,trials_3.thisTrialN,trials_3.thisN,trials_3.thisIndex,trials.thisRepN,trials.thisTrialN,trials.thisN,trials.thisIndex,thisRow.t,notes,key_resp_2.keys,key_resp_2.corr,letter.routineEndVal,nback.routineEndVal,type.routineEndVal,key_resp_2.rt,key_resp_2.duration,participant,session,date,expName,psychopyVersion,frameRate,expStart,
0,0,0,0,0,0,0,0,2.2812871000205632,,None,1,U,,1,,,157356,silence,2023-11-07_15h32.35.315,experiment,2023.2.2,60.09637054602206,2023-11-07 15h33.27.185418 +0100,
0,0,0,0,1,0,1,0,4.380524100008188,,['space'],1,U,U,1,[0.48078199999872595],[None],157356,silence,2023-11-07_15h32.35.315,experiment,2023.2.2,60.09637054602206,2023-11-07 15h33.27.185418 +0100,
0,0,0,0,2,0,2,0,6.4801717000082135,,None,1,T,U,1,,,157356,silence,2023-11-07_15h32.35.315,experiment,2023.2.2,60.09637054602206,2023-11-07 15h33.27.185418 +0100,
0,0,0,0,3,0,3,0,8.580916600010823,,None,1,C,T,1,,,157356,silence,2023-11-07_15h32.35.315,experiment,2023.2.2,60.09637054602206,2023-11-07 15h33.27.185418 +0100,
0,0,0,0,4,0,4,0,10.68032910002512,,None,1,U,C,1,,,157356,silence,2023-11-07_15h32.35.315,experiment,2023.2.2,60.09637054602206,2023-11-07 15h33.27.185418 +0100,
0,0,0,0,5,0,5,0,12.780095400026767,,['space'],1,U,U,1,[0.5178695000067819],[None],157356,silence,2023-11-07_15h32.35.315,experiment,2023.2.2,60.09637054602206,2023-11-07 15h33.27.185418 +0100,
0,0,0,0,6,0,6,0,14.880145000002813,,['space'],1,U,U,1,[0.5249699999985751],[None],157356,silence,2023-11-07_15h32.35.315,experiment,2023.2.2,60.09637054602206,2023-11-07 15h33.27.185418 +0100,
0,0,0,0,7,0,7,0,16.979765500000212,,None,1,K,U,1,,,157356,silence,2023-11-07_15h32.35.315,experiment,2023.2.2,60.09637054602206,2023-11-07 15h33.27.185418 +0100,
0,0,0,0,8,0,8,0,19.08004550001351,,['space'],1,K,K,1,[0.47765960000106134],[None],157356,silence,2023-11-07_15h32.35.315,experiment,2023.2.2,60.09637054602206,2023-11-07 15h33.27.185418 +0100,
0,0,0,0,9,0,9,0,21.179940600006375,,None,1,T,K,1,,,157356,silence,2023-11-07_15h32.35.315,experiment,2023.2.2,60.09637054602206,2023-11-07 15h33.27.185418 +0100,
0,0,0,0,10,0,10,0,23.27989060000982,,['space'],1,T,T,1,[0.450348300015321],[None],157356,silence,2023-11-07_15h32.35.315,experiment,2023.2.2,60.09637054602206,2023-11-07 15h33.27.185418 +0100,
0,0,0,0,11,0,11,0,25.381991600006586,,None,1,W,T,1,,,157356,silence,2023-11-07_15h32.35.315,experiment,2023.2.2,60.09637054602206,2023-11-07 15h33.27.185418 +0100,
0,0,0,0,,,,,,,,,,,,,,157356,silence,2023-11-07_15h32.35.315,experiment,2023.2.2,60.09637054602206,2023-11-07 15h33.27.185418 +0100,
1,0,1,0,0,0,0,0,29.76467770000454,,None,1,X,,1,,,157356,silence,2023-11-07_15h32.35.315,experiment,2023.2.2,60.09637054602206,2023-11-07 15h33.27.185418 +0100,
1,0,1,0,1,0,1,0,31.862689400004456,,None,1,Y,X,1,,,157356,silence,2023-11-07_15h32.35.315,experiment,2023.2.2,60.09637054602206,2023-11-07 15h33.27.185418 +0100,
1,0,1,0,2,0,2,0,33.96255200001178,,None,1,O,Y,1,,,157356,silence,2023-11-07_15h32.35.315,experiment,2023.2.2,60.09637054602206,2023-11-07 15h33.27.185418 +0100,
1,0,1,0,3,0,3,0,36.06277650000993,,None,1,I,O,1,,,157356,silence,2023-11-07_15h32.35.315,experiment,2023.2.2,60.09637054602206,2023-11-07 15h33.27.185418 +0100,
1,0,1,0,4,0,4,0,38.163735900016036,,None,1,M,I,1,,,157356,silence,2023-11-07_15h32.35.315,experiment,2023.2.2,60.09637054602206,2023-11-07 15h33.27.185418 +0100,
1,0,1,0,5,0,5,0,40.26234939999995,,None,1,U,M,1,,,157356,silence,2023-11-07_15h32.35.315,experiment,2023.2.2,60.09637054602206,2023-11-07 15h33.27.185418 +0100,
1,0,1,0,6,0,6,0,42.36225650002598,,None,1,I,U,1,,,157356,silence,2023-11-07_15h32.35.315,experiment,2023.2.2,60.09637054602206,2023-11-07 15h33.27.185418 +0100,
1,0,1,0,7,0,7,0,44.462105100014014,,['space'],0,O,I,1,[0.6372542000026442],[None],157356,silence,2023-11-07_15h32.35.315,experiment,2023.2.2,60.09637054602206,2023-11-07 15h33.27.185418 +0100,
1,0,1,0,8,0,8,0,46.56325370000559,,None,1,D,O,1,,,157356,silence,2023-11-07_15h32.35.315,experiment,2023.2.2,60.09637054602206,2023-11-07 15h33.27.185418 +0100,
1,0,1,0,9,0,9,0,48.6621544000227,,None,1,S,D,1,,,157356,silence,2023-11-07_15h32.35.315,experiment,2023.2.2,60.09637054602206,2023-11-07 15h33.27.185418 +0100,
1,0,1,0,10,0,10,0,50.762097099999664,,None,1,R,S,1,,,157356,silence,2023-11-07_15h32.35.315,experiment,2023.2.2,60.09637054602206,2023-11-07 15h33.27.185418 +0100,
1,0,1,0,11,0,11,0,52.86186930001713,,None,1,J,R,1,,,157356,silence,2023-11-07_15h32.35.315,experiment,2023.2.2,60.09637054602206,2023-11-07 15h33.27.185418 +0100,
1,0,1,0,,,,,,,,,,,,,,157356,silence,2023-11-07_15h32.35.315,experiment,2023.2.2,60.09637054602206,2023-11-07 15h33.27.185418 +0100,
2,0,2,0,0,0,0,0,57.99499270002707,,None,1,P,,1,,,157356,silence,2023-11-07_15h32.35.315,experiment,2023.2.2,60.09637054602206,2023-11-07 15h33.27.185418 +0100,
2,0,2,0,1,0,1,0,60.09484400000656,,None,1,B,P,1,,,157356,silence,2023-11-07_15h32.35.315,experiment,2023.2.2,60.09637054602206,2023-11-07 15h33.27.185418 +0100,
2,0,2,0,2,0,2,0,62.194916200009175,,None,1,O,B,1,,,157356,silence,2023-11-07_15h32.35.315,experiment,2023.2.2,60.09637054602206,2023-11-07 15h33.27.185418 +0100,
2,0,2,0,3,0,3,0,64.29467630002182,,None,1,F,O,1,,,157356,silence,2023-11-07_15h32.35.315,experiment,2023.2.2,60.09637054602206,2023-11-07 15h33.27.185418 +0100,
2,0,2,0,4,0,4,0,66.39452010000241,,None,1,N,F,1,,,157356,silence,2023-11-07_15h32.35.315,experiment,2023.2.2,60.09637054602206,2023-11-07 15h33.27.185418 +0100,
2,0,2,0,5,0,5,0,68.49439250002615,,None,1,V,N,1,,,157356,silence,2023-11-07_15h32.35.315,experiment,2023.2.2,60.09637054602206,2023-11-07 15h33.27.185418 +0100,
2,0,2,0,6,0,6,0,70.59443230001489,,None,1,D,V,1,,,157356,silence,2023-11-07_15h32.35.315,experiment,2023.2.2,60.09637054602206,2023-11-07 15h33.27.185418 +0100,
2,0,2,0,7,0,7,0,72.69455360001302,,None,1,Q,D,1,,,157356,silence,2023-11-07_15h32.35.315,experiment,2023.2.2,60.09637054602206,2023-11-07 15h33.27.185418 +0100,
2,0,2,0,8,0,8,0,74.79435490001924,,None,1,W,Q,1,,,157356,silence,2023-11-07_15h32.35.315,experiment,2023.2.2,60.09637054602206,2023-11-07 15h33.27.185418 +0100,
2,0,2,0,9,0,9,0,76.89417640000465,,None,1,D,W,1,,,157356,silence,2023-11-07_15h32.35.315,experiment,2023.2.2,60.09637054602206,2023-11-07 15h33.27.185418 +0100,
2,0,2,0,10,0,10,0,78.99413790000835,,None,1,C,D,1,,,157356,silence,2023-11-07_15h32.35.315,experiment,2023.2.2,60.09637054602206,2023-11-07 15h33.27.185418 +0100,
2,0,2,0,11,0,11,0,81.09419560001697,,None,1,X,C,1,,,157356,silence,2023-11-07_15h32.35.315,experiment,2023.2.2,60.09637054602206,2023-11-07 15h33.27.185418 +0100,
2,0,2,0,,,,,,,,,,,,,,157356,silence,2023-11-07_15h32.35.315,experiment,2023.2.2,60.09637054602206,2023-11-07 15h33.27.185418 +0100,
3,0,3,0,0,0,0,0,84.7437409000122,,None,1,X,,2,,,157356,silence,2023-11-07_15h32.35.315,experiment,2023.2.2,60.09637054602206,2023-11-07 15h33.27.185418 +0100,
3,0,3,0,1,0,1,0,86.84367960001691,,None,1,M,,2,,,157356,silence,2023-11-07_15h32.35.315,experiment,2023.2.2,60.09637054602206,2023-11-07 15h33.27.185418 +0100,
3,0,3,0,2,0,2,0,88.94384990000981,,None,1,P,X,2,,,157356,silence,2023-11-07_15h32.35.315,experiment,2023.2.2,60.09637054602206,2023-11-07 15h33.27.185418 +0100,
3,0,3,0,3,0,3,0,91.04339710000204,,None,1,V,M,2,,,157356,silence,2023-11-07_15h32.35.315,experiment,2023.2.2,60.09637054602206,2023-11-07 15h33.27.185418 +0100,
3,0,3,0,4,0,4,0,93.14332410000497,,None,1,E,P,2,,,157356,silence,2023-11-07_15h32.35.315,experiment,2023.2.2,60.09637054602206,2023-11-07 15h33.27.185418 +0100,
3,0,3,0,5,0,5,0,95.24320500000613,,None,1,N,V,2,,,157356,silence,2023-11-07_15h32.35.315,experiment,2023.2.2,60.09637054602206,2023-11-07 15h33.27.185418 +0100,
3,0,3,0,6,0,6,0,97.34320360000129,,None,1,W,E,2,,,157356,silence,2023-11-07_15h32.35.315,experiment,2023.2.2,60.09637054602206,2023-11-07 15h33.27.185418 +0100,
3,0,3,0,7,0,7,0,99.44303350002156,,None,1,Y,N,2,,,157356,silence,2023-11-07_15h32.35.315,experiment,2023.2.2,60.09637054602206,2023-11-07 15h33.27.185418 +0100,
3,0,3,0,8,0,8,0,101.54313320000074,,['space'],0,J,W,2,[1.5028904000064358],[None],157356,silence,2023-11-07_15h32.35.315,experiment,2023.2.2,60.09637054602206,2023-11-07 15h33.27.185418 +0100,
3,0,3,0,9,0,9,0,103.64280570001574,,None,1,Q,Y,2,,,157356,silence,2023-11-07_15h32.35.315,experiment,2023.2.2,60.09637054602206,2023-11-07 15h33.27.185418 +0100,
3,0,3,0,10,0,10,0,105.74299140000949,,['space'],1,J,J,2,[1.1930759999959264],[None],157356,silence,2023-11-07_15h32.35.315,experiment,2023.2.2,60.09637054602206,2023-11-07 15h33.27.185418 +0100,
3,0,3,0,11,0,11,0,107.8427922000119,,None,1,U,Q,2,,,157356,silence,2023-11-07_15h32.35.315,experiment,2023.2.2,60.09637054602206,2023-11-07 15h33.27.185418 +0100,
3,0,3,0,,,,,,,,,,,,,,157356,silence,2023-11-07_15h32.35.315,experiment,2023.2.2,60.09637054602206,2023-11-07 15h33.27.185418 +0100,
4,0,4,0,0,0,0,0,110.9791151000245,,None,1,H,,1,,,157356,silence,2023-11-07_15h32.35.315,experiment,2023.2.2,60.09637054602206,2023-11-07 15h33.27.185418 +0100,
4,0,4,0,1,0,1,0,113.07552070001839,,None,1,Q,H,1,,,157356,silence,2023-11-07_15h32.35.315,experiment,2023.2.2,60.09637054602206,2023-11-07 15h33.27.185418 +0100,
4,0,4,0,2,0,2,0,115.1756330000062,,None,1,R,Q,1,,,157356,silence,2023-11-07_15h32.35.315,experiment,2023.2.2,60.09637054602206,2023-11-07 15h33.27.185418 +0100,
4,0,4,0,3,0,3,0,117.27555990000837,,None,1,I,R,1,,,157356,silence,2023-11-07_15h32.35.315,experiment,2023.2.2,60.09637054602206,2023-11-07 15h33.27.185418 +0100,
4,0,4,0,4,0,4,0,119.37535490002483,,None,1,Y,I,1,,,157356,silence,2023-11-07_15h32.35.315,experiment,2023.2.2,60.09637054602206,2023-11-07 15h33.27.185418 +0100,
4,0,4,0,5,0,5,0,121.47518510001828,,None,1,F,Y,1,,,157356,silence,2023-11-07_15h32.35.315,experiment,2023.2.2,60.09637054602206,2023-11-07 15h33.27.185418 +0100,
4,0,4,0,6,0,6,0,123.57549720001407,,None,1,V,F,1,,,157356,silence,2023-11-07_15h32.35.315,experiment,2023.2.2,60.09637054602206,2023-11-07 15h33.27.185418 +0100,
4,0,4,0,7,0,7,0,125.67493930002092,,None,1,U,V,1,,,157356,silence,2023-11-07_15h32.35.315,experiment,2023.2.2,60.09637054602206,2023-11-07 15h33.27.185418 +0100,
4,0,4,0,8,0,8,0,127.7746799000015,,None,1,A,U,1,,,157356,silence,2023-11-07_15h32.35.315,experiment,2023.2.2,60.09637054602206,2023-11-07 15h33.27.185418 +0100,
4,0,4,0,9,0,9,0,129.8749775000033,,None,1,U,A,1,,,157356,silence,2023-11-07_15h32.35.315,experiment,2023.2.2,60.09637054602206,2023-11-07 15h33.27.185418 +0100,
4,0,4,0,10,0,10,0,131.97458780001034,,None,1,L,U,1,,,157356,silence,2023-11-07_15h32.35.315,experiment,2023.2.2,60.09637054602206,2023-11-07 15h33.27.185418 +0100,
4,0,4,0,11,0,11,0,134.07477310000104,,None,1,R,L,1,,,157356,silence,2023-11-07_15h32.35.315,experiment,2023.2.2,60.09637054602206,2023-11-07 15h33.27.185418 +0100,
4,0,4,0,,,,,,,,,,,,,,157356,silence,2023-11-07_15h32.35.315,experiment,2023.2.2,60.09637054602206,2023-11-07 15h33.27.185418 +0100,
5,0,5,0,0,0,0,0,137.15821080000023,,None,1,L,,2,,,157356,silence,2023-11-07_15h32.35.315,experiment,2023.2.2,60.09637054602206,2023-11-07 15h33.27.185418 +0100,
5,0,5,0,1,0,1,0,139.2580614000035,,None,1,M,,2,,,157356,silence,2023-11-07_15h32.35.315,experiment,2023.2.2,60.09637054602206,2023-11-07 15h33.27.185418 +0100,
5,0,5,0,2,0,2,0,141.3581075000111,,None,1,C,L,2,,,157356,silence,2023-11-07_15h32.35.315,experiment,2023.2.2,60.09637054602206,2023-11-07 15h33.27.185418 +0100,
5,0,5,0,3,0,3,0,143.45805070002098,,None,1,K,M,2,,,157356,silence,2023-11-07_15h32.35.315,experiment,2023.2.2,60.09637054602206,2023-11-07 15h33.27.185418 +0100,
5,0,5,0,4,0,4,0,145.5577079000068,,['space'],1,C,C,2,[0.8815645999857225],[None],157356,silence,2023-11-07_15h32.35.315,experiment,2023.2.2,60.09637054602206,2023-11-07 15h33.27.185418 +0100,
5,0,5,0,5,0,5,0,147.65778700000374,,None,1,J,K,2,,,157356,silence,2023-11-07_15h32.35.315,experiment,2023.2.2,60.09637054602206,2023-11-07 15h33.27.185418 +0100,
5,0,5,0,6,0,6,0,149.75745319999987,,None,1,E,C,2,,,157356,silence,2023-11-07_15h32.35.315,experiment,2023.2.2,60.09637054602206,2023-11-07 15h33.27.185418 +0100,
5,0,5,0,7,0,7,0,151.85745390001102,,None,1,Z,J,2,,,157356,silence,2023-11-07_15h32.35.315,experiment,2023.2.2,60.09637054602206,2023-11-07 15h33.27.185418 +0100,
5,0,5,0,8,0,8,0,153.95750120002776,,None,1,Q,E,2,,,157356,silence,2023-11-07_15h32.35.315,experiment,2023.2.2,60.09637054602206,2023-11-07 15h33.27.185418 +0100,
5,0,5,0,9,0,9,0,156.0575715000159,,None,1,O,Z,2,,,157356,silence,2023-11-07_15h32.35.315,experiment,2023.2.2,60.09637054602206,2023-11-07 15h33.27.185418 +0100,
5,0,5,0,10,0,10,0,158.15724270002102,,None,1,K,Q,2,,,157356,silence,2023-11-07_15h32.35.315,experiment,2023.2.2,60.09637054602206,2023-11-07 15h33.27.185418 +0100,
5,0,5,0,11,0,11,0,160.25720420002472,,None,1,F,O,2,,,157356,silence,2023-11-07_15h32.35.315,experiment,2023.2.2,60.09637054602206,2023-11-07 15h33.27.185418 +0100,
5,0,5,0,,,,,,,,,,,,,,157356,silence,2023-11-07_15h32.35.315,experiment,2023.2.2,60.09637054602206,2023-11-07 15h33.27.185418 +0100,
6,0,6,0,0,0,0,0,163.05700920001254,,None,1,A,,2,,,157356,silence,2023-11-07_15h32.35.315,experiment,2023.2.2,60.09637054602206,2023-11-07 15h33.27.185418 +0100,
6,0,6,0,1,0,1,0,165.15674010000657,,None,1,I,,2,,,157356,silence,2023-11-07_15h32.35.315,experiment,2023.2.2,60.09637054602206,2023-11-07 15h33.27.185418 +0100,
6,0,6,0,2,0,2,0,167.25697380001657,,None,1,V,A,2,,,157356,silence,2023-11-07_15h32.35.315,experiment,2023.2.2,60.09637054602206,2023-11-07 15h33.27.185418 +0100,
6,0,6,0,3,0,3,0,169.35660090000601,,None,1,C,I,2,,,157356,silence,2023-11-07_15h32.35.315,experiment,2023.2.2,60.09637054602206,2023-11-07 15h33.27.185418 +0100,
6,0,6,0,4,0,4,0,171.45680760001414,,None,1,O,V,2,,,157356,silence,2023-11-07_15h32.35.315,experiment,2023.2.2,60.09637054602206,2023-11-07 15h33.27.185418 +0100,
6,0,6,0,5,0,5,0,173.55667550000362,,None,1,Y,C,2,,,157356,silence,2023-11-07_15h32.35.315,experiment,2023.2.2,60.09637054602206,2023-11-07 15h33.27.185418 +0100,
6,0,6,0,6,0,6,0,175.65638200001558,,None,1,J,O,2,,,157356,silence,2023-11-07_15h32.35.315,experiment,2023.2.2,60.09637054602206,2023-11-07 15h33.27.185418 +0100,
6,0,6,0,7,0,7,0,177.75627070001792,,None,1,W,Y,2,,,157356,silence,2023-11-07_15h32.35.315,experiment,2023.2.2,60.09637054602206,2023-11-07 15h33.27.185418 +0100,
6,0,6,0,8,0,8,0,179.85620080001536,,None,1,S,J,2,,,157356,silence,2023-11-07_15h32.35.315,experiment,2023.2.2,60.09637054602206,2023-11-07 15h33.27.185418 +0100,
6,0,6,0,9,0,9,0,181.95712530001765,,None,1,G,W,2,,,157356,silence,2023-11-07_15h32.35.315,experiment,2023.2.2,60.09637054602206,2023-11-07 15h33.27.185418 +0100,
6,0,6,0,10,0,10,0,184.05621670000255,,None,1,L,S,2,,,157356,silence,2023-11-07_15h32.35.315,experiment,2023.2.2,60.09637054602206,2023-11-07 15h33.27.185418 +0100,
6,0,6,0,11,0,11,0,186.15577620000113,,None,1,W,G,2,,,157356,silence,2023-11-07_15h32.35.315,experiment,2023.2.2,60.09637054602206,2023-11-07 15h33.27.185418 +0100,
6,0,6,0,,,,,,,,,,,,,,157356,silence,2023-11-07_15h32.35.315,experiment,2023.2.2,60.09637054602206,2023-11-07 15h33.27.185418 +0100,
7,0,7,0,0,0,0,0,188.8721910000022,,None,1,F,,2,,,157356,silence,2023-11-07_15h32.35.315,experiment,2023.2.2,60.09637054602206,2023-11-07 15h33.27.185418 +0100,
7,0,7,0,1,0,1,0,190.97218420001445,,None,1,G,,2,,,157356,silence,2023-11-07_15h32.35.315,experiment,2023.2.2,60.09637054602206,2023-11-07 15h33.27.185418 +0100,
7,0,7,0,2,0,2,0,193.07220890000463,,None,1,Z,F,2,,,157356,silence,2023-11-07_15h32.35.315,experiment,2023.2.2,60.09637054602206,2023-11-07 15h33.27.185418 +0100,
7,0,7,0,3,0,3,0,195.17227390001062,,None,1,Z,G,2,,,157356,silence,2023-11-07_15h32.35.315,experiment,2023.2.2,60.09637054602206,2023-11-07 15h33.27.185418 +0100,
7,0,7,0,4,0,4,0,197.2718833000108,,None,1,U,Z,2,,,157356,silence,2023-11-07_15h32.35.315,experiment,2023.2.2,60.09637054602206,2023-11-07 15h33.27.185418 +0100,
7,0,7,0,5,0,5,0,199.37178850002238,,None,1,D,Z,2,,,157356,silence,2023-11-07_15h32.35.315,experiment,2023.2.2,60.09637054602206,2023-11-07 15h33.27.185418 +0100,
7,0,7,0,6,0,6,0,201.47173350001685,,None,1,R,U,2,,,157356,silence,2023-11-07_15h32.35.315,experiment,2023.2.2,60.09637054602206,2023-11-07 15h33.27.185418 +0100,
7,0,7,0,7,0,7,0,203.57169350000913,,None,1,J,D,2,,,157356,silence,2023-11-07_15h32.35.315,experiment,2023.2.2,60.09637054602206,2023-11-07 15h33.27.185418 +0100,
7,0,7,0,8,0,8,0,205.6716900000174,,None,1,Y,R,2,,,157356,silence,2023-11-07_15h32.35.315,experiment,2023.2.2,60.09637054602206,2023-11-07 15h33.27.185418 +0100,
7,0,7,0,9,0,9,0,207.7714492000232,,None,1,G,J,2,,,157356,silence,2023-11-07_15h32.35.315,experiment,2023.2.2,60.09637054602206,2023-11-07 15h33.27.185418 +0100,
7,0,7,0,10,0,10,0,209.87144930000068,,['space'],0,R,Y,2,[1.8134644000092521],[None],157356,silence,2023-11-07_15h32.35.315,experiment,2023.2.2,60.09637054602206,2023-11-07 15h33.27.185418 +0100,
7,0,7,0,11,0,11,0,211.9713225000014,,None,1,T,G,2,,,157356,silence,2023-11-07_15h32.35.315,experiment,2023.2.2,60.09637054602206,2023-11-07 15h33.27.185418 +0100,
7,0,7,0,,,,,,,,,,,,,,157356,silence,2023-11-07_15h32.35.315,experiment,2023.2.2,60.09637054602206,2023-11-07 15h33.27.185418 +0100,
