trials_3.thisRepN,trials_3.thisTrialN,trials_3.thisN,trials_3.thisIndex,trials.thisRepN,trials.thisTrialN,trials.thisN,trials.thisIndex,thisRow.t,notes,key_resp_2.keys,key_resp_2.corr,letter.routineEndVal,nback.routineEndVal,type.routineEndVal,key_resp_2.rt,key_resp_2.duration,participant,session,date,expName,psychopyVersion,frameRate,expStart,
0,0,0,0,0,0,0,0,4.257707899999332,,None,1,F,,1,,,818597,pink,2023-11-07_23h03.29.904,experiment,2023.2.2,60.06161120067282,2023-11-07 23h04.15.517094 +0100,
0,0,0,0,1,0,1,0,6.356321399999615,,None,1,S,F,1,,,818597,pink,2023-11-07_23h03.29.904,experiment,2023.2.2,60.06161120067282,2023-11-07 23h04.15.517094 +0100,
0,0,0,0,2,0,2,0,8.456049200000052,,None,1,H,S,1,,,818597,pink,2023-11-07_23h03.29.904,experiment,2023.2.2,60.06161120067282,2023-11-07 23h04.15.517094 +0100,
0,0,0,0,3,0,3,0,10.555724400000145,,None,1,E,H,1,,,818597,pink,2023-11-07_23h03.29.904,experiment,2023.2.2,60.06161120067282,2023-11-07 23h04.15.517094 +0100,
0,0,0,0,4,0,4,0,12.655785399999331,,['space'],1,E,E,1,[0.9170881999998528],[None],818597,pink,2023-11-07_23h03.29.904,experiment,2023.2.2,60.06161120067282,2023-11-07 23h04.15.517094 +0100,
0,0,0,0,5,0,5,0,14.757369500000095,,None,1,W,E,1,,,818597,pink,2023-11-07_23h03.29.904,experiment,2023.2.2,60.06161120067282,2023-11-07 23h04.15.517094 +0100,
0,0,0,0,6,0,6,0,16.855628700000125,,None,1,N,W,1,,,818597,pink,2023-11-07_23h03.29.904,experiment,2023.2.2,60.06161120067282,2023-11-07 23h04.15.517094 +0100,
0,0,0,0,7,0,7,0,18.955618500000128,,None,1,X,N,1,,,818597,pink,2023-11-07_23h03.29.904,experiment,2023.2.2,60.06161120067282,2023-11-07 23h04.15.517094 +0100,
0,0,0,0,8,0,8,0,21.055677499999547,,['space'],1,X,X,1,[0.8773764999996274],[None],818597,pink,2023-11-07_23h03.29.904,experiment,2023.2.2,60.06161120067282,2023-11-07 23h04.15.517094 +0100,
0,0,0,0,9,0,9,0,23.155619600000136,,['space'],1,X,X,1,[0.7076833999999508],[None],818597,pink,2023-11-07_23h03.29.904,experiment,2023.2.2,60.06161120067282,2023-11-07 23h04.15.517094 +0100,
0,0,0,0,10,0,10,0,25.255592200000137,,None,1,R,X,1,,,818597,pink,2023-11-07_23h03.29.904,experiment,2023.2.2,60.06161120067282,2023-11-07 23h04.15.517094 +0100,
0,0,0,0,11,0,11,0,27.35528609999983,,['space'],1,R,R,1,[0.6810949000000619],[None],818597,pink,2023-11-07_23h03.29.904,experiment,2023.2.2,60.06161120067282,2023-11-07 23h04.15.517094 +0100,
0,0,0,0,,,,,,,,,,,,,,818597,pink,2023-11-07_23h03.29.904,experiment,2023.2.2,60.06161120067282,2023-11-07 23h04.15.517094 +0100,
1,0,1,0,0,0,0,0,31.47181399999954,,None,1,J,,1,,,818597,pink,2023-11-07_23h03.29.904,experiment,2023.2.2,60.06161120067282,2023-11-07 23h04.15.517094 +0100,
1,0,1,0,1,0,1,0,33.571604699999625,,None,1,F,J,1,,,818597,pink,2023-11-07_23h03.29.904,experiment,2023.2.2,60.06161120067282,2023-11-07 23h04.15.517094 +0100,
1,0,1,0,2,0,2,0,35.67137629999979,,None,1,G,F,1,,,818597,pink,2023-11-07_23h03.29.904,experiment,2023.2.2,60.06161120067282,2023-11-07 23h04.15.517094 +0100,
1,0,1,0,3,0,3,0,37.77147679999962,,None,1,X,G,1,,,818597,pink,2023-11-07_23h03.29.904,experiment,2023.2.2,60.06161120067282,2023-11-07 23h04.15.517094 +0100,
1,0,1,0,4,0,4,0,39.871493499999815,,None,1,J,X,1,,,818597,pink,2023-11-07_23h03.29.904,experiment,2023.2.2,60.06161120067282,2023-11-07 23h04.15.517094 +0100,
1,0,1,0,5,0,5,0,41.9711698000001,,None,1,O,J,1,,,818597,pink,2023-11-07_23h03.29.904,experiment,2023.2.2,60.06161120067282,2023-11-07 23h04.15.517094 +0100,
1,0,1,0,6,0,6,0,44.070992099999785,,None,1,A,O,1,,,818597,pink,2023-11-07_23h03.29.904,experiment,2023.2.2,60.06161120067282,2023-11-07 23h04.15.517094 +0100,
1,0,1,0,7,0,7,0,46.17081580000013,,None,1,Y,A,1,,,818597,pink,2023-11-07_23h03.29.904,experiment,2023.2.2,60.06161120067282,2023-11-07 23h04.15.517094 +0100,
1,0,1,0,8,0,8,0,48.27087029999984,,['space'],1,Y,Y,1,[0.5852272000001904],[None],818597,pink,2023-11-07_23h03.29.904,experiment,2023.2.2,60.06161120067282,2023-11-07 23h04.15.517094 +0100,
1,0,1,0,9,0,9,0,50.37067759999991,,None,1,P,Y,1,,,818597,pink,2023-11-07_23h03.29.904,experiment,2023.2.2,60.06161120067282,2023-11-07 23h04.15.517094 +0100,
1,0,1,0,10,0,10,0,52.47074749999956,,['space'],1,P,P,1,[0.5282725000006394],[None],818597,pink,2023-11-07_23h03.29.904,experiment,2023.2.2,60.06161120067282,2023-11-07 23h04.15.517094 +0100,
1,0,1,0,11,0,11,0,54.57068530000015,,None,1,W,P,1,,,818597,pink,2023-11-07_23h03.29.904,experiment,2023.2.2,60.06161120067282,2023-11-07 23h04.15.517094 +0100,
1,0,1,0,,,,,,,,,,,,,,818597,pink,2023-11-07_23h03.29.904,experiment,2023.2.2,60.06161120067282,2023-11-07 23h04.15.517094 +0100,
2,0,2,0,0,0,0,0,57.93695409999964,,None,1,Z,,1,,,818597,pink,2023-11-07_23h03.29.904,experiment,2023.2.2,60.06161120067282,2023-11-07 23h04.15.517094 +0100,
2,0,2,0,1,0,1,0,60.03700159999971,,None,1,L,Z,1,,,818597,pink,2023-11-07_23h03.29.904,experiment,2023.2.2,60.06161120067282,2023-11-07 23h04.15.517094 +0100,
2,0,2,0,2,0,2,0,62.13668770000004,,None,1,B,L,1,,,818597,pink,2023-11-07_23h03.29.904,experiment,2023.2.2,60.06161120067282,2023-11-07 23h04.15.517094 +0100,
2,0,2,0,3,0,3,0,64.2199357999998,,None,1,T,B,1,,,818597,pink,2023-11-07_23h03.29.904,experiment,2023.2.2,60.06161120067282,2023-11-07 23h04.15.517094 +0100,
2,0,2,0,4,0,4,0,66.3200410999998,,None,1,N,T,1,,,818597,pink,2023-11-07_23h03.29.904,experiment,2023.2.2,60.06161120067282,2023-11-07 23h04.15.517094 +0100,
2,0,2,0,5,0,5,0,68.41979739999988,,None,1,U,N,1,,,818597,pink,2023-11-07_23h03.29.904,experiment,2023.2.2,60.06161120067282,2023-11-07 23h04.15.517094 +0100,
2,0,2,0,6,0,6,0,70.51957969999967,,None,1,J,U,1,,,818597,pink,2023-11-07_23h03.29.904,experiment,2023.2.2,60.06161120067282,2023-11-07 23h04.15.517094 +0100,
2,0,2,0,7,0,7,0,72.61970829999973,,None,1,P,J,1,,,818597,pink,2023-11-07_23h03.29.904,experiment,2023.2.2,60.06161120067282,2023-11-07 23h04.15.517094 +0100,
2,0,2,0,8,0,8,0,74.71979479999936,,None,1,D,P,1,,,818597,pink,2023-11-07_23h03.29.904,experiment,2023.2.2,60.06161120067282,2023-11-07 23h04.15.517094 +0100,
2,0,2,0,9,0,9,0,76.81983159999982,,None,1,S,D,1,,,818597,pink,2023-11-07_23h03.29.904,experiment,2023.2.2,60.06161120067282,2023-11-07 23h04.15.517094 +0100,
2,0,2,0,10,0,10,0,78.91955280000002,,None,1,W,S,1,,,818597,pink,2023-11-07_23h03.29.904,experiment,2023.2.2,60.06161120067282,2023-11-07 23h04.15.517094 +0100,
2,0,2,0,11,0,11,0,81.01922459999969,,None,1,R,W,1,,,818597,pink,2023-11-07_23h03.29.904,experiment,2023.2.2,60.06161120067282,2023-11-07 23h04.15.517094 +0100,
2,0,2,0,,,,,,,,,,,,,,818597,pink,2023-11-07_23h03.29.904,experiment,2023.2.2,60.06161120067282,2023-11-07 23h04.15.517094 +0100,
3,0,3,0,0,0,0,0,88.75253220000013,,None,1,P,,2,,,818597,pink,2023-11-07_23h03.29.904,experiment,2023.2.2,60.06161120067282,2023-11-07 23h04.15.517094 +0100,
3,0,3,0,1,0,1,0,90.8523338999994,,None,1,U,,2,,,818597,pink,2023-11-07_23h03.29.904,experiment,2023.2.2,60.06161120067282,2023-11-07 23h04.15.517094 +0100,
3,0,3,0,2,0,2,0,92.95187540000006,,None,1,Q,P,2,,,818597,pink,2023-11-07_23h03.29.904,experiment,2023.2.2,60.06161120067282,2023-11-07 23h04.15.517094 +0100,
3,0,3,0,3,0,3,0,95.05223179999939,,None,1,H,U,2,,,818597,pink,2023-11-07_23h03.29.904,experiment,2023.2.2,60.06161120067282,2023-11-07 23h04.15.517094 +0100,
3,0,3,0,4,0,4,0,97.1520402999995,,None,1,G,Q,2,,,818597,pink,2023-11-07_23h03.29.904,experiment,2023.2.2,60.06161120067282,2023-11-07 23h04.15.517094 +0100,
3,0,3,0,5,0,5,0,99.25207210000008,,None,1,A,H,2,,,818597,pink,2023-11-07_23h03.29.904,experiment,2023.2.2,60.06161120067282,2023-11-07 23h04.15.517094 +0100,
3,0,3,0,6,0,6,0,101.35211059999983,,None,1,Y,G,2,,,818597,pink,2023-11-07_23h03.29.904,experiment,2023.2.2,60.06161120067282,2023-11-07 23h04.15.517094 +0100,
3,0,3,0,7,0,7,0,103.4518380999998,,None,1,I,A,2,,,818597,pink,2023-11-07_23h03.29.904,experiment,2023.2.2,60.06161120067282,2023-11-07 23h04.15.517094 +0100,
3,0,3,0,8,0,8,0,105.55183789999955,,None,1,P,Y,2,,,818597,pink,2023-11-07_23h03.29.904,experiment,2023.2.2,60.06161120067282,2023-11-07 23h04.15.517094 +0100,
3,0,3,0,9,0,9,0,107.65138519999982,,None,1,K,I,2,,,818597,pink,2023-11-07_23h03.29.904,experiment,2023.2.2,60.06161120067282,2023-11-07 23h04.15.517094 +0100,
3,0,3,0,10,0,10,0,109.75169860000005,,None,1,S,P,2,,,818597,pink,2023-11-07_23h03.29.904,experiment,2023.2.2,60.06161120067282,2023-11-07 23h04.15.517094 +0100,
3,0,3,0,11,0,11,0,111.85123059999933,,None,1,M,K,2,,,818597,pink,2023-11-07_23h03.29.904,experiment,2023.2.2,60.06161120067282,2023-11-07 23h04.15.517094 +0100,
3,0,3,0,,,,,,,,,,,,,,818597,pink,2023-11-07_23h03.29.904,experiment,2023.2.2,60.06161120067282,2023-11-07 23h04.15.517094 +0100,
4,0,4,0,0,0,0,0,121.91751740000018,,None,1,V,,1,,,818597,pink,2023-11-07_23h03.29.904,experiment,2023.2.2,60.06161120067282,2023-11-07 23h04.15.517094 +0100,
4,0,4,0,1,0,1,0,124.01737700000012,,['space'],1,V,V,1,[0.546980000000076],[None],818597,pink,2023-11-07_23h03.29.904,experiment,2023.2.2,60.06161120067282,2023-11-07 23h04.15.517094 +0100,
4,0,4,0,2,0,2,0,126.11760099999992,,None,1,I,V,1,,,818597,pink,2023-11-07_23h03.29.904,experiment,2023.2.2,60.06161120067282,2023-11-07 23h04.15.517094 +0100,
4,0,4,0,3,0,3,0,128.21727250000004,,None,1,N,I,1,,,818597,pink,2023-11-07_23h03.29.904,experiment,2023.2.2,60.06161120067282,2023-11-07 23h04.15.517094 +0100,
4,0,4,0,4,0,4,0,130.3172982999995,,None,1,F,N,1,,,818597,pink,2023-11-07_23h03.29.904,experiment,2023.2.2,60.06161120067282,2023-11-07 23h04.15.517094 +0100,
4,0,4,0,5,0,5,0,132.4170635999999,,None,1,Q,F,1,,,818597,pink,2023-11-07_23h03.29.904,experiment,2023.2.2,60.06161120067282,2023-11-07 23h04.15.517094 +0100,
4,0,4,0,6,0,6,0,134.5170048,,None,1,U,Q,1,,,818597,pink,2023-11-07_23h03.29.904,experiment,2023.2.2,60.06161120067282,2023-11-07 23h04.15.517094 +0100,
4,0,4,0,7,0,7,0,136.61673699999938,,None,1,T,U,1,,,818597,pink,2023-11-07_23h03.29.904,experiment,2023.2.2,60.06161120067282,2023-11-07 23h04.15.517094 +0100,
4,0,4,0,8,0,8,0,138.71682859999964,,None,1,N,T,1,,,818597,pink,2023-11-07_23h03.29.904,experiment,2023.2.2,60.06161120067282,2023-11-07 23h04.15.517094 +0100,
4,0,4,0,9,0,9,0,140.8166573999997,,None,1,P,N,1,,,818597,pink,2023-11-07_23h03.29.904,experiment,2023.2.2,60.06161120067282,2023-11-07 23h04.15.517094 +0100,
4,0,4,0,10,0,10,0,142.91639099999975,,None,1,X,P,1,,,818597,pink,2023-11-07_23h03.29.904,experiment,2023.2.2,60.06161120067282,2023-11-07 23h04.15.517094 +0100,
4,0,4,0,11,0,11,0,145.01645149999968,,None,1,T,X,1,,,818597,pink,2023-11-07_23h03.29.904,experiment,2023.2.2,60.06161120067282,2023-11-07 23h04.15.517094 +0100,
4,0,4,0,,,,,,,,,,,,,,818597,pink,2023-11-07_23h03.29.904,experiment,2023.2.2,60.06161120067282,2023-11-07 23h04.15.517094 +0100,
5,0,5,0,0,0,0,0,147.8999372999997,,None,1,L,,2,,,818597,pink,2023-11-07_23h03.29.904,experiment,2023.2.2,60.06161120067282,2023-11-07 23h04.15.517094 +0100,
5,0,5,0,1,0,1,0,149.9998225999998,,None,1,F,,2,,,818597,pink,2023-11-07_23h03.29.904,experiment,2023.2.2,60.06161120067282,2023-11-07 23h04.15.517094 +0100,
5,0,5,0,2,0,2,0,152.09960169999977,,None,1,F,L,2,,,818597,pink,2023-11-07_23h03.29.904,experiment,2023.2.2,60.06161120067282,2023-11-07 23h04.15.517094 +0100,
5,0,5,0,3,0,3,0,154.19960290000017,,None,1,B,F,2,,,818597,pink,2023-11-07_23h03.29.904,experiment,2023.2.2,60.06161120067282,2023-11-07 23h04.15.517094 +0100,
5,0,5,0,4,0,4,0,156.2996276999993,,None,1,K,F,2,,,818597,pink,2023-11-07_23h03.29.904,experiment,2023.2.2,60.06161120067282,2023-11-07 23h04.15.517094 +0100,
5,0,5,0,5,0,5,0,158.39958669999942,,None,1,U,B,2,,,818597,pink,2023-11-07_23h03.29.904,experiment,2023.2.2,60.06161120067282,2023-11-07 23h04.15.517094 +0100,
5,0,5,0,6,0,6,0,160.49929579999935,,None,1,E,K,2,,,818597,pink,2023-11-07_23h03.29.904,experiment,2023.2.2,60.06161120067282,2023-11-07 23h04.15.517094 +0100,
5,0,5,0,7,0,7,0,162.59924090000004,,None,1,V,U,2,,,818597,pink,2023-11-07_23h03.29.904,experiment,2023.2.2,60.06161120067282,2023-11-07 23h04.15.517094 +0100,
5,0,5,0,8,0,8,0,164.69931480000014,,None,1,M,E,2,,,818597,pink,2023-11-07_23h03.29.904,experiment,2023.2.2,60.06161120067282,2023-11-07 23h04.15.517094 +0100,
5,0,5,0,9,0,9,0,166.79897379999966,,None,1,X,V,2,,,818597,pink,2023-11-07_23h03.29.904,experiment,2023.2.2,60.06161120067282,2023-11-07 23h04.15.517094 +0100,
5,0,5,0,10,0,10,0,168.8987943000002,,None,1,O,M,2,,,818597,pink,2023-11-07_23h03.29.904,experiment,2023.2.2,60.06161120067282,2023-11-07 23h04.15.517094 +0100,
5,0,5,0,11,0,11,0,170.99881129999994,,None,1,S,X,2,,,818597,pink,2023-11-07_23h03.29.904,experiment,2023.2.2,60.06161120067282,2023-11-07 23h04.15.517094 +0100,
5,0,5,0,,,,,,,,,,,,,,818597,pink,2023-11-07_23h03.29.904,experiment,2023.2.2,60.06161120067282,2023-11-07 23h04.15.517094 +0100,
6,0,6,0,0,0,0,0,174.29873270000007,,None,1,I,,2,,,818597,pink,2023-11-07_23h03.29.904,experiment,2023.2.2,60.06161120067282,2023-11-07 23h04.15.517094 +0100,
6,0,6,0,1,0,1,0,176.39864299999954,,None,1,X,,2,,,818597,pink,2023-11-07_23h03.29.904,experiment,2023.2.2,60.06161120067282,2023-11-07 23h04.15.517094 +0100,
6,0,6,0,2,0,2,0,178.50067619999936,,None,1,C,I,2,,,818597,pink,2023-11-07_23h03.29.904,experiment,2023.2.2,60.06161120067282,2023-11-07 23h04.15.517094 +0100,
6,0,6,0,3,0,3,0,180.5984787999996,,None,1,G,X,2,,,818597,pink,2023-11-07_23h03.29.904,experiment,2023.2.2,60.06161120067282,2023-11-07 23h04.15.517094 +0100,
6,0,6,0,4,0,4,0,182.69825539999965,,None,1,Y,C,2,,,818597,pink,2023-11-07_23h03.29.904,experiment,2023.2.2,60.06161120067282,2023-11-07 23h04.15.517094 +0100,
6,0,6,0,5,0,5,0,184.79818049999994,,None,1,A,G,2,,,818597,pink,2023-11-07_23h03.29.904,experiment,2023.2.2,60.06161120067282,2023-11-07 23h04.15.517094 +0100,
6,0,6,0,6,0,6,0,186.8982729999998,,None,1,L,Y,2,,,818597,pink,2023-11-07_23h03.29.904,experiment,2023.2.2,60.06161120067282,2023-11-07 23h04.15.517094 +0100,
6,0,6,0,7,0,7,0,188.99805819999983,,None,1,P,A,2,,,818597,pink,2023-11-07_23h03.29.904,experiment,2023.2.2,60.06161120067282,2023-11-07 23h04.15.517094 +0100,
6,0,6,0,8,0,8,0,191.09776710000006,,None,1,D,L,2,,,818597,pink,2023-11-07_23h03.29.904,experiment,2023.2.2,60.06161120067282,2023-11-07 23h04.15.517094 +0100,
6,0,6,0,9,0,9,0,193.1978927,,None,1,K,P,2,,,818597,pink,2023-11-07_23h03.29.904,experiment,2023.2.2,60.06161120067282,2023-11-07 23h04.15.517094 +0100,
6,0,6,0,10,0,10,0,195.29790950000006,,None,1,J,D,2,,,818597,pink,2023-11-07_23h03.29.904,experiment,2023.2.2,60.06161120067282,2023-11-07 23h04.15.517094 +0100,
6,0,6,0,11,0,11,0,197.39781700000003,,None,1,V,K,2,,,818597,pink,2023-11-07_23h03.29.904,experiment,2023.2.2,60.06161120067282,2023-11-07 23h04.15.517094 +0100,
6,0,6,0,,,,,,,,,,,,,,818597,pink,2023-11-07_23h03.29.904,experiment,2023.2.2,60.06161120067282,2023-11-07 23h04.15.517094 +0100,
7,0,7,0,0,0,0,0,202.01389329999984,,None,1,C,,2,,,818597,pink,2023-11-07_23h03.29.904,experiment,2023.2.2,60.06161120067282,2023-11-07 23h04.15.517094 +0100,
7,0,7,0,1,0,1,0,204.1140773999996,,None,1,Z,,2,,,818597,pink,2023-11-07_23h03.29.904,experiment,2023.2.2,60.06161120067282,2023-11-07 23h04.15.517094 +0100,
7,0,7,0,2,0,2,0,206.2135803000001,,None,1,L,C,2,,,818597,pink,2023-11-07_23h03.29.904,experiment,2023.2.2,60.06161120067282,2023-11-07 23h04.15.517094 +0100,
7,0,7,0,3,0,3,0,208.31374379999943,,['space'],1,Z,Z,2,[0.773767300000145],[None],818597,pink,2023-11-07_23h03.29.904,experiment,2023.2.2,60.06161120067282,2023-11-07 23h04.15.517094 +0100,
7,0,7,0,4,0,4,0,210.4135957999997,,None,1,S,L,2,,,818597,pink,2023-11-07_23h03.29.904,experiment,2023.2.2,60.06161120067282,2023-11-07 23h04.15.517094 +0100,
7,0,7,0,5,0,5,0,212.51345450000008,,None,1,H,Z,2,,,818597,pink,2023-11-07_23h03.29.904,experiment,2023.2.2,60.06161120067282,2023-11-07 23h04.15.517094 +0100,
7,0,7,0,6,0,6,0,214.61347549999937,,None,1,C,S,2,,,818597,pink,2023-11-07_23h03.29.904,experiment,2023.2.2,60.06161120067282,2023-11-07 23h04.15.517094 +0100,
7,0,7,0,7,0,7,0,216.7133801,,None,1,Z,H,2,,,818597,pink,2023-11-07_23h03.29.904,experiment,2023.2.2,60.06161120067282,2023-11-07 23h04.15.517094 +0100,
7,0,7,0,8,0,8,0,218.8133201999999,,None,1,J,C,2,,,818597,pink,2023-11-07_23h03.29.904,experiment,2023.2.2,60.06161120067282,2023-11-07 23h04.15.517094 +0100,
7,0,7,0,9,0,9,0,220.91334329999972,,None,1,M,Z,2,,,818597,pink,2023-11-07_23h03.29.904,experiment,2023.2.2,60.06161120067282,2023-11-07 23h04.15.517094 +0100,
7,0,7,0,10,0,10,0,223.01317860000017,,None,1,E,J,2,,,818597,pink,2023-11-07_23h03.29.904,experiment,2023.2.2,60.06161120067282,2023-11-07 23h04.15.517094 +0100,
7,0,7,0,11,0,11,0,225.11291540000002,,None,1,V,M,2,,,818597,pink,2023-11-07_23h03.29.904,experiment,2023.2.2,60.06161120067282,2023-11-07 23h04.15.517094 +0100,
7,0,7,0,,,,,,,,,,,,,,818597,pink,2023-11-07_23h03.29.904,experiment,2023.2.2,60.06161120067282,2023-11-07 23h04.15.517094 +0100,
