trials_3.thisRepN,trials_3.thisTrialN,trials_3.thisN,trials_3.thisIndex,trials.thisRepN,trials.thisTrialN,trials.thisN,trials.thisIndex,thisRow.t,notes,key_resp_2.keys,key_resp_2.corr,letter.routineEndVal,nback.routineEndVal,type.routineEndVal,key_resp_2.rt,key_resp_2.duration,participant,session,date,expName,psychopyVersion,frameRate,expStart,
0,0,0,0,0,0,0,0,4.008271799997601,,None,1,P,,1,,,839726,silence,2023-11-08_09h29.46.590,experiment,2023.2.2,59.97005095801938,2023-11-08 09h30.23.519258 +0100,
0,0,0,0,1,0,1,0,6.108158600000024,,None,1,X,P,1,,,839726,silence,2023-11-08_09h29.46.590,experiment,2023.2.2,59.97005095801938,2023-11-08 09h30.23.519258 +0100,
0,0,0,0,2,0,2,0,8.208110899999156,,['space'],1,X,X,1,[0.4992779000021983],[None],839726,silence,2023-11-08_09h29.46.590,experiment,2023.2.2,59.97005095801938,2023-11-08 09h30.23.519258 +0100,
0,0,0,0,3,0,3,0,10.309153599999263,,None,1,A,X,1,,,839726,silence,2023-11-08_09h29.46.590,experiment,2023.2.2,59.97005095801938,2023-11-08 09h30.23.519258 +0100,
0,0,0,0,4,0,4,0,12.407982299999276,,None,1,P,A,1,,,839726,silence,2023-11-08_09h29.46.590,experiment,2023.2.2,59.97005095801938,2023-11-08 09h30.23.519258 +0100,
0,0,0,0,5,0,5,0,14.507773700002872,,None,1,X,P,1,,,839726,silence,2023-11-08_09h29.46.590,experiment,2023.2.2,59.97005095801938,2023-11-08 09h30.23.519258 +0100,
0,0,0,0,6,0,6,0,16.607228699998814,,None,1,Z,X,1,,,839726,silence,2023-11-08_09h29.46.590,experiment,2023.2.2,59.97005095801938,2023-11-08 09h30.23.519258 +0100,
0,0,0,0,7,0,7,0,18.70742639999662,,['space'],1,Z,Z,1,[0.67157330000191],[None],839726,silence,2023-11-08_09h29.46.590,experiment,2023.2.2,59.97005095801938,2023-11-08 09h30.23.519258 +0100,
0,0,0,0,8,0,8,0,20.80750860000262,,['space'],1,Z,Z,1,[0.5518793999945046],[None],839726,silence,2023-11-08_09h29.46.590,experiment,2023.2.2,59.97005095801938,2023-11-08 09h30.23.519258 +0100,
0,0,0,0,9,0,9,0,22.907405700003437,,['space'],1,Z,Z,1,[0.5726720000020578],[None],839726,silence,2023-11-08_09h29.46.590,experiment,2023.2.2,59.97005095801938,2023-11-08 09h30.23.519258 +0100,
0,0,0,0,10,0,10,0,25.009606300001906,,None,1,O,Z,1,,,839726,silence,2023-11-08_09h29.46.590,experiment,2023.2.2,59.97005095801938,2023-11-08 09h30.23.519258 +0100,
0,0,0,0,11,0,11,0,27.107045999997354,,['space'],1,O,O,1,[0.48577970000042114],[None],839726,silence,2023-11-08_09h29.46.590,experiment,2023.2.2,59.97005095801938,2023-11-08 09h30.23.519258 +0100,
0,0,0,0,,,,,,,,,,,,,,839726,silence,2023-11-08_09h29.46.590,experiment,2023.2.2,59.97005095801938,2023-11-08 09h30.23.519258 +0100,
1,0,1,0,0,0,0,0,32.091242100003,,None,1,J,,2,,,839726,silence,2023-11-08_09h29.46.590,experiment,2023.2.2,59.97005095801938,2023-11-08 09h30.23.519258 +0100,
1,0,1,0,1,0,1,0,34.18994560000283,,None,1,G,,2,,,839726,silence,2023-11-08_09h29.46.590,experiment,2023.2.2,59.97005095801938,2023-11-08 09h30.23.519258 +0100,
1,0,1,0,2,0,2,0,36.28995120000036,,None,1,G,J,2,,,839726,silence,2023-11-08_09h29.46.590,experiment,2023.2.2,59.97005095801938,2023-11-08 09h30.23.519258 +0100,
1,0,1,0,3,0,3,0,38.39029450000089,,None,1,U,G,2,,,839726,silence,2023-11-08_09h29.46.590,experiment,2023.2.2,59.97005095801938,2023-11-08 09h30.23.519258 +0100,
1,0,1,0,4,0,4,0,40.48966569999902,,['space'],0,U,G,2,[0.6884684000033303],[None],839726,silence,2023-11-08_09h29.46.590,experiment,2023.2.2,59.97005095801938,2023-11-08 09h30.23.519258 +0100,
1,0,1,0,5,0,5,0,42.58948000000237,,None,1,X,U,2,,,839726,silence,2023-11-08_09h29.46.590,experiment,2023.2.2,59.97005095801938,2023-11-08 09h30.23.519258 +0100,
1,0,1,0,6,0,6,0,44.68954890000168,,None,1,O,U,2,,,839726,silence,2023-11-08_09h29.46.590,experiment,2023.2.2,59.97005095801938,2023-11-08 09h30.23.519258 +0100,
1,0,1,0,7,0,7,0,46.78915109999798,,None,1,T,X,2,,,839726,silence,2023-11-08_09h29.46.590,experiment,2023.2.2,59.97005095801938,2023-11-08 09h30.23.519258 +0100,
1,0,1,0,8,0,8,0,48.88947460000054,,None,1,J,O,2,,,839726,silence,2023-11-08_09h29.46.590,experiment,2023.2.2,59.97005095801938,2023-11-08 09h30.23.519258 +0100,
1,0,1,0,9,0,9,0,50.991299200002686,,None,1,D,T,2,,,839726,silence,2023-11-08_09h29.46.590,experiment,2023.2.2,59.97005095801938,2023-11-08 09h30.23.519258 +0100,
1,0,1,0,10,0,10,0,53.08921469999768,,['space'],0,T,J,2,[0.9438418999998248],[None],839726,silence,2023-11-08_09h29.46.590,experiment,2023.2.2,59.97005095801938,2023-11-08 09h30.23.519258 +0100,
1,0,1,0,11,0,11,0,55.192618699999,,None,1,V,D,2,,,839726,silence,2023-11-08_09h29.46.590,experiment,2023.2.2,59.97005095801938,2023-11-08 09h30.23.519258 +0100,
1,0,1,0,,,,,,,,,,,,,,839726,silence,2023-11-08_09h29.46.590,experiment,2023.2.2,59.97005095801938,2023-11-08 09h30.23.519258 +0100,
2,0,2,0,0,0,0,0,60.024253399999,,None,1,L,,2,,,839726,silence,2023-11-08_09h29.46.590,experiment,2023.2.2,59.97005095801938,2023-11-08 09h30.23.519258 +0100,
2,0,2,0,1,0,1,0,62.12215599999763,,None,1,Y,,2,,,839726,silence,2023-11-08_09h29.46.590,experiment,2023.2.2,59.97005095801938,2023-11-08 09h30.23.519258 +0100,
2,0,2,0,2,0,2,0,64.2221411999999,,None,1,N,L,2,,,839726,silence,2023-11-08_09h29.46.590,experiment,2023.2.2,59.97005095801938,2023-11-08 09h30.23.519258 +0100,
2,0,2,0,3,0,3,0,66.32216799999878,,None,1,C,Y,2,,,839726,silence,2023-11-08_09h29.46.590,experiment,2023.2.2,59.97005095801938,2023-11-08 09h30.23.519258 +0100,
2,0,2,0,4,0,4,0,68.42201309999655,,None,1,J,N,2,,,839726,silence,2023-11-08_09h29.46.590,experiment,2023.2.2,59.97005095801938,2023-11-08 09h30.23.519258 +0100,
2,0,2,0,5,0,5,0,70.52189299999736,,None,1,H,C,2,,,839726,silence,2023-11-08_09h29.46.590,experiment,2023.2.2,59.97005095801938,2023-11-08 09h30.23.519258 +0100,
2,0,2,0,6,0,6,0,72.62163709999732,,None,1,I,J,2,,,839726,silence,2023-11-08_09h29.46.590,experiment,2023.2.2,59.97005095801938,2023-11-08 09h30.23.519258 +0100,
2,0,2,0,7,0,7,0,74.72154679999949,,None,1,E,H,2,,,839726,silence,2023-11-08_09h29.46.590,experiment,2023.2.2,59.97005095801938,2023-11-08 09h30.23.519258 +0100,
2,0,2,0,8,0,8,0,76.82160429999931,,None,1,O,I,2,,,839726,silence,2023-11-08_09h29.46.590,experiment,2023.2.2,59.97005095801938,2023-11-08 09h30.23.519258 +0100,
2,0,2,0,9,0,9,0,78.92166649999854,,None,1,P,E,2,,,839726,silence,2023-11-08_09h29.46.590,experiment,2023.2.2,59.97005095801938,2023-11-08 09h30.23.519258 +0100,
2,0,2,0,10,0,10,0,81.02160520000325,,None,1,Y,O,2,,,839726,silence,2023-11-08_09h29.46.590,experiment,2023.2.2,59.97005095801938,2023-11-08 09h30.23.519258 +0100,
2,0,2,0,11,0,11,0,83.12126549999812,,None,1,Y,P,2,,,839726,silence,2023-11-08_09h29.46.590,experiment,2023.2.2,59.97005095801938,2023-11-08 09h30.23.519258 +0100,
2,0,2,0,,,,,,,,,,,,,,839726,silence,2023-11-08_09h29.46.590,experiment,2023.2.2,59.97005095801938,2023-11-08 09h30.23.519258 +0100,
3,0,3,0,0,0,0,0,86.1211794999981,,None,1,Y,,2,,,839726,silence,2023-11-08_09h29.46.590,experiment,2023.2.2,59.97005095801938,2023-11-08 09h30.23.519258 +0100,
3,0,3,0,1,0,1,0,88.22077980000176,,None,1,R,,2,,,839726,silence,2023-11-08_09h29.46.590,experiment,2023.2.2,59.97005095801938,2023-11-08 09h30.23.519258 +0100,
3,0,3,0,2,0,2,0,90.32117180000205,,None,1,X,Y,2,,,839726,silence,2023-11-08_09h29.46.590,experiment,2023.2.2,59.97005095801938,2023-11-08 09h30.23.519258 +0100,
3,0,3,0,3,0,3,0,92.42091519999667,,None,1,M,R,2,,,839726,silence,2023-11-08_09h29.46.590,experiment,2023.2.2,59.97005095801938,2023-11-08 09h30.23.519258 +0100,
3,0,3,0,4,0,4,0,94.52082040000096,,None,1,F,X,2,,,839726,silence,2023-11-08_09h29.46.590,experiment,2023.2.2,59.97005095801938,2023-11-08 09h30.23.519258 +0100,
3,0,3,0,5,0,5,0,96.6208897999968,,None,1,C,M,2,,,839726,silence,2023-11-08_09h29.46.590,experiment,2023.2.2,59.97005095801938,2023-11-08 09h30.23.519258 +0100,
3,0,3,0,6,0,6,0,98.72056829999929,,None,1,R,F,2,,,839726,silence,2023-11-08_09h29.46.590,experiment,2023.2.2,59.97005095801938,2023-11-08 09h30.23.519258 +0100,
3,0,3,0,7,0,7,0,100.82028700000228,,None,1,H,C,2,,,839726,silence,2023-11-08_09h29.46.590,experiment,2023.2.2,59.97005095801938,2023-11-08 09h30.23.519258 +0100,
3,0,3,0,8,0,8,0,102.92061749999993,,None,1,F,R,2,,,839726,silence,2023-11-08_09h29.46.590,experiment,2023.2.2,59.97005095801938,2023-11-08 09h30.23.519258 +0100,
3,0,3,0,9,0,9,0,105.0202993999992,,['space'],1,H,H,2,[0.8809993999966537],[None],839726,silence,2023-11-08_09h29.46.590,experiment,2023.2.2,59.97005095801938,2023-11-08 09h30.23.519258 +0100,
3,0,3,0,10,0,10,0,107.12193329999718,,None,1,Q,F,2,,,839726,silence,2023-11-08_09h29.46.590,experiment,2023.2.2,59.97005095801938,2023-11-08 09h30.23.519258 +0100,
3,0,3,0,11,0,11,0,109.22017829999822,,None,1,U,H,2,,,839726,silence,2023-11-08_09h29.46.590,experiment,2023.2.2,59.97005095801938,2023-11-08 09h30.23.519258 +0100,
3,0,3,0,,,,,,,,,,,,,,839726,silence,2023-11-08_09h29.46.590,experiment,2023.2.2,59.97005095801938,2023-11-08 09h30.23.519258 +0100,
4,0,4,0,0,0,0,0,112.95310639999661,,None,1,W,,2,,,839726,silence,2023-11-08_09h29.46.590,experiment,2023.2.2,59.97005095801938,2023-11-08 09h30.23.519258 +0100,
4,0,4,0,1,0,1,0,115.06174160000228,,None,1,B,,2,,,839726,silence,2023-11-08_09h29.46.590,experiment,2023.2.2,59.97005095801938,2023-11-08 09h30.23.519258 +0100,
4,0,4,0,2,0,2,0,117.15313459999743,,None,1,C,W,2,,,839726,silence,2023-11-08_09h29.46.590,experiment,2023.2.2,59.97005095801938,2023-11-08 09h30.23.519258 +0100,
4,0,4,0,3,0,3,0,119.25302190000366,,None,1,E,B,2,,,839726,silence,2023-11-08_09h29.46.590,experiment,2023.2.2,59.97005095801938,2023-11-08 09h30.23.519258 +0100,
4,0,4,0,4,0,4,0,121.3531323999996,,['space'],0,E,C,2,[0.8007666999983485],[None],839726,silence,2023-11-08_09h29.46.590,experiment,2023.2.2,59.97005095801938,2023-11-08 09h30.23.519258 +0100,
4,0,4,0,5,0,5,0,123.45275419999962,,None,1,F,E,2,,,839726,silence,2023-11-08_09h29.46.590,experiment,2023.2.2,59.97005095801938,2023-11-08 09h30.23.519258 +0100,
4,0,4,0,6,0,6,0,125.552878100003,,None,1,L,E,2,,,839726,silence,2023-11-08_09h29.46.590,experiment,2023.2.2,59.97005095801938,2023-11-08 09h30.23.519258 +0100,
4,0,4,0,7,0,7,0,127.65300459999708,,None,1,J,F,2,,,839726,silence,2023-11-08_09h29.46.590,experiment,2023.2.2,59.97005095801938,2023-11-08 09h30.23.519258 +0100,
4,0,4,0,8,0,8,0,129.75262490000023,,None,1,V,L,2,,,839726,silence,2023-11-08_09h29.46.590,experiment,2023.2.2,59.97005095801938,2023-11-08 09h30.23.519258 +0100,
4,0,4,0,9,0,9,0,131.85246310000366,,None,1,Q,J,2,,,839726,silence,2023-11-08_09h29.46.590,experiment,2023.2.2,59.97005095801938,2023-11-08 09h30.23.519258 +0100,
4,0,4,0,10,0,10,0,133.95240639999975,,None,1,A,V,2,,,839726,silence,2023-11-08_09h29.46.590,experiment,2023.2.2,59.97005095801938,2023-11-08 09h30.23.519258 +0100,
4,0,4,0,11,0,11,0,136.05229959999997,,None,1,K,Q,2,,,839726,silence,2023-11-08_09h29.46.590,experiment,2023.2.2,59.97005095801938,2023-11-08 09h30.23.519258 +0100,
4,0,4,0,,,,,,,,,,,,,,839726,silence,2023-11-08_09h29.46.590,experiment,2023.2.2,59.97005095801938,2023-11-08 09h30.23.519258 +0100,
5,0,5,0,0,0,0,0,139.90195759999915,,None,1,Q,,1,,,839726,silence,2023-11-08_09h29.46.590,experiment,2023.2.2,59.97005095801938,2023-11-08 09h30.23.519258 +0100,
5,0,5,0,1,0,1,0,141.98519400000077,,None,1,V,Q,1,,,839726,silence,2023-11-08_09h29.46.590,experiment,2023.2.2,59.97005095801938,2023-11-08 09h30.23.519258 +0100,
5,0,5,0,2,0,2,0,144.08534650000365,,None,1,I,V,1,,,839726,silence,2023-11-08_09h29.46.590,experiment,2023.2.2,59.97005095801938,2023-11-08 09h30.23.519258 +0100,
5,0,5,0,3,0,3,0,146.18492890000198,,None,1,M,I,1,,,839726,silence,2023-11-08_09h29.46.590,experiment,2023.2.2,59.97005095801938,2023-11-08 09h30.23.519258 +0100,
5,0,5,0,4,0,4,0,148.2848146000033,,None,1,A,M,1,,,839726,silence,2023-11-08_09h29.46.590,experiment,2023.2.2,59.97005095801938,2023-11-08 09h30.23.519258 +0100,
5,0,5,0,5,0,5,0,150.38480849999905,,None,1,O,A,1,,,839726,silence,2023-11-08_09h29.46.590,experiment,2023.2.2,59.97005095801938,2023-11-08 09h30.23.519258 +0100,
5,0,5,0,6,0,6,0,152.4846682999996,,None,1,N,O,1,,,839726,silence,2023-11-08_09h29.46.590,experiment,2023.2.2,59.97005095801938,2023-11-08 09h30.23.519258 +0100,
5,0,5,0,7,0,7,0,154.58468279999943,,None,1,Q,N,1,,,839726,silence,2023-11-08_09h29.46.590,experiment,2023.2.2,59.97005095801938,2023-11-08 09h30.23.519258 +0100,
5,0,5,0,8,0,8,0,156.68455630000244,,None,1,W,Q,1,,,839726,silence,2023-11-08_09h29.46.590,experiment,2023.2.2,59.97005095801938,2023-11-08 09h30.23.519258 +0100,
5,0,5,0,9,0,9,0,158.78465629999846,,None,1,B,W,1,,,839726,silence,2023-11-08_09h29.46.590,experiment,2023.2.2,59.97005095801938,2023-11-08 09h30.23.519258 +0100,
5,0,5,0,10,0,10,0,160.88438080000196,,None,1,E,B,1,,,839726,silence,2023-11-08_09h29.46.590,experiment,2023.2.2,59.97005095801938,2023-11-08 09h30.23.519258 +0100,
5,0,5,0,11,0,11,0,162.98425509999652,,None,1,H,E,1,,,839726,silence,2023-11-08_09h29.46.590,experiment,2023.2.2,59.97005095801938,2023-11-08 09h30.23.519258 +0100,
5,0,5,0,,,,,,,,,,,,,,839726,silence,2023-11-08_09h29.46.590,experiment,2023.2.2,59.97005095801938,2023-11-08 09h30.23.519258 +0100,
6,0,6,0,0,0,0,0,168.76744309999776,,None,1,W,,1,,,839726,silence,2023-11-08_09h29.46.590,experiment,2023.2.2,59.97005095801938,2023-11-08 09h30.23.519258 +0100,
6,0,6,0,1,0,1,0,170.8672927000007,,None,1,I,W,1,,,839726,silence,2023-11-08_09h29.46.590,experiment,2023.2.2,59.97005095801938,2023-11-08 09h30.23.519258 +0100,
6,0,6,0,2,0,2,0,172.96706919999997,,None,1,S,I,1,,,839726,silence,2023-11-08_09h29.46.590,experiment,2023.2.2,59.97005095801938,2023-11-08 09h30.23.519258 +0100,
6,0,6,0,3,0,3,0,175.06720170000335,,None,1,A,S,1,,,839726,silence,2023-11-08_09h29.46.590,experiment,2023.2.2,59.97005095801938,2023-11-08 09h30.23.519258 +0100,
6,0,6,0,4,0,4,0,177.16713960000197,,None,1,L,A,1,,,839726,silence,2023-11-08_09h29.46.590,experiment,2023.2.2,59.97005095801938,2023-11-08 09h30.23.519258 +0100,
6,0,6,0,5,0,5,0,179.26708040000085,,None,1,G,L,1,,,839726,silence,2023-11-08_09h29.46.590,experiment,2023.2.2,59.97005095801938,2023-11-08 09h30.23.519258 +0100,
6,0,6,0,6,0,6,0,181.3670310000016,,None,1,O,G,1,,,839726,silence,2023-11-08_09h29.46.590,experiment,2023.2.2,59.97005095801938,2023-11-08 09h30.23.519258 +0100,
6,0,6,0,7,0,7,0,183.46673600000213,,None,1,V,O,1,,,839726,silence,2023-11-08_09h29.46.590,experiment,2023.2.2,59.97005095801938,2023-11-08 09h30.23.519258 +0100,
6,0,6,0,8,0,8,0,185.5668119999973,,None,1,J,V,1,,,839726,silence,2023-11-08_09h29.46.590,experiment,2023.2.2,59.97005095801938,2023-11-08 09h30.23.519258 +0100,
6,0,6,0,9,0,9,0,187.66664180000225,,None,1,S,J,1,,,839726,silence,2023-11-08_09h29.46.590,experiment,2023.2.2,59.97005095801938,2023-11-08 09h30.23.519258 +0100,
6,0,6,0,10,0,10,0,189.7665760000018,,None,1,K,S,1,,,839726,silence,2023-11-08_09h29.46.590,experiment,2023.2.2,59.97005095801938,2023-11-08 09h30.23.519258 +0100,
6,0,6,0,11,0,11,0,191.86648070000228,,['space'],1,K,K,1,[0.7411651000002166],[None],839726,silence,2023-11-08_09h29.46.590,experiment,2023.2.2,59.97005095801938,2023-11-08 09h30.23.519258 +0100,
6,0,6,0,,,,,,,,,,,,,,839726,silence,2023-11-08_09h29.46.590,experiment,2023.2.2,59.97005095801938,2023-11-08 09h30.23.519258 +0100,
7,0,7,0,0,0,0,0,195.71619510000164,,None,1,G,,1,,,839726,silence,2023-11-08_09h29.46.590,experiment,2023.2.2,59.97005095801938,2023-11-08 09h30.23.519258 +0100,
7,0,7,0,1,0,1,0,197.8164220000035,,None,1,O,G,1,,,839726,silence,2023-11-08_09h29.46.590,experiment,2023.2.2,59.97005095801938,2023-11-08 09h30.23.519258 +0100,
7,0,7,0,2,0,2,0,199.916043600002,,['space'],1,O,O,1,[0.7400149999957648],[None],839726,silence,2023-11-08_09h29.46.590,experiment,2023.2.2,59.97005095801938,2023-11-08 09h30.23.519258 +0100,
7,0,7,0,3,0,3,0,202.01592399999936,,None,1,V,O,1,,,839726,silence,2023-11-08_09h29.46.590,experiment,2023.2.2,59.97005095801938,2023-11-08 09h30.23.519258 +0100,
7,0,7,0,4,0,4,0,204.11593659999926,,None,1,J,V,1,,,839726,silence,2023-11-08_09h29.46.590,experiment,2023.2.2,59.97005095801938,2023-11-08 09h30.23.519258 +0100,
7,0,7,0,5,0,5,0,206.21588350000093,,None,1,G,J,1,,,839726,silence,2023-11-08_09h29.46.590,experiment,2023.2.2,59.97005095801938,2023-11-08 09h30.23.519258 +0100,
7,0,7,0,6,0,6,0,208.31583159999718,,None,1,U,G,1,,,839726,silence,2023-11-08_09h29.46.590,experiment,2023.2.2,59.97005095801938,2023-11-08 09h30.23.519258 +0100,
7,0,7,0,7,0,7,0,210.4157097999996,,None,1,T,U,1,,,839726,silence,2023-11-08_09h29.46.590,experiment,2023.2.2,59.97005095801938,2023-11-08 09h30.23.519258 +0100,
7,0,7,0,8,0,8,0,212.51571839999815,,None,1,I,T,1,,,839726,silence,2023-11-08_09h29.46.590,experiment,2023.2.2,59.97005095801938,2023-11-08 09h30.23.519258 +0100,
7,0,7,0,9,0,9,0,214.61545679999836,,None,1,Z,I,1,,,839726,silence,2023-11-08_09h29.46.590,experiment,2023.2.2,59.97005095801938,2023-11-08 09h30.23.519258 +0100,
7,0,7,0,10,0,10,0,216.72322549999808,,['space'],1,Z,Z,1,[0.6932041000036406],[None],839726,silence,2023-11-08_09h29.46.590,experiment,2023.2.2,59.97005095801938,2023-11-08 09h30.23.519258 +0100,
7,0,7,0,11,0,11,0,218.81544340000255,,None,1,X,Z,1,,,839726,silence,2023-11-08_09h29.46.590,experiment,2023.2.2,59.97005095801938,2023-11-08 09h30.23.519258 +0100,
7,0,7,0,,,,,,,,,,,,,,839726,silence,2023-11-08_09h29.46.590,experiment,2023.2.2,59.97005095801938,2023-11-08 09h30.23.519258 +0100,
